prolificid,subject_id,age,gender,label,trialnum,status,outcome,getsout,bloc,img1,img2,buttonchoice,rtchoice,rt,response,key_press,time_elapsed,internal_node_id,trial_type,trial_index,stimulus,responses,playerout,playeroutnumber,rated,date,time,datefinish,timefinish,,
5d4755febdd31c0019bb78e3,8551490,,,surveyid,,,,,,,,,,3031,,,14312,0.0-3.0,survey-text,3,,"{Q0"":""5d4755febdd31c0019bb78e3""}""",,,,26/05/2020,1.5905E+12,26/05/2020,1.5905E+12,,
5d4755febdd31c0019bb78e3,8551490,25,M,survey,,,,,,,,,,4905,,,19240,0.0-4.0,survey-text,4,,"{Q0"":""25""","Q1:""M""}""",,,,26/05/2020,1.5905E+12,26/05/2020,1.5905E+12,
5d4755febdd31c0019bb78e3,8551490,25,M,scaleresp,36,2,1,2,1,2,8,0,1483,4021.2,24,,99206,0.0-12.0,html-slider-response,12,"<p style=font-size:16px; text-align:center;"">  How responsible is Player 50 for the outcome ? </p>""",,4,Player 82,Player 50,26/05/2020,1.5905E+12,26/05/2020,1.5905E+12,,
5d4755febdd31c0019bb78e3,8551490,25,M,scaleresp,37,1,2,1,1,6,20,1,1559,2556.4,73,,112395,0.0-17.0,html-slider-response,17,"<p style=font-size:16px; text-align:center;"">  How responsible is Player 82 for the outcome ? </p>""",,4,Player 82,Player 82,26/05/2020,1.5905E+12,26/05/2020,1.5905E+12,,
5d4755febdd31c0019bb78e3,8551490,25,M,scaleresp,1,1,1,1,1,13,16,1,1417,2629,61,,125202,0.0-22.0,html-slider-response,22,"<p style=font-size:16px; text-align:center;"">  How responsible is Player 16 for the outcome ? </p>""",,0,Player 16,Player 16,26/05/2020,1.5905E+12,26/05/2020,1.5905E+12,,
5d4755febdd31c0019bb78e3,8551490,25,M,scaleresp,12,2,1,2,1,4,17,0,737,1401.2,73,,136097,0.0-27.0,html-slider-response,27,"<p style=font-size:16px; text-align:center;"">  How responsible is Player 34 for the outcome ? </p>""",,1,Player 50,Player 34,26/05/2020,1.5905E+12,26/05/2020,1.5905E+12,,
5d4755febdd31c0019bb78e3,8551490,25,M,scaleresp,2,2,1,1,1,8,19,0,1019,1585.8,60,,147461,0.0-32.0,html-slider-response,32,"<p style=font-size:16px; text-align:center;"">  How responsible is Player 16 for the outcome ? </p>""",,0,Player 16,Player 16,26/05/2020,1.5905E+12,26/05/2020,1.5905E+12,,
5d4755febdd31c0019bb78e3,8551490,25,M,scaleresp,15,1,2,2,1,10,13,1,1137,2348.3,30,,159649,0.0-37.0,html-slider-response,37,"<p style=font-size:16px; text-align:center;"">  How responsible is Player 16 for the outcome ? </p>""",,1,Player 50,Player 16,26/05/2020,1.5905E+12,26/05/2020,1.5905E+12,,
5d4755febdd31c0019bb78e3,8551490,25,M,scaleresp,9,1,1,1,1,10,12,1,977,1399.4,31,,170926,0.0-42.0,html-slider-response,42,"<p style=font-size:16px; text-align:center;"">  How responsible is Player 50 for the outcome ? </p>""",,1,Player 50,Player 50,26/05/2020,1.5905E+12,26/05/2020,1.5905E+12,,
5d4755febdd31c0019bb78e3,8551490,25,M,scaleresp,21,1,2,1,1,2,4,0,849,2608.1,99,,183141,0.0-47.0,html-slider-response,47,"<p style=font-size:16px; text-align:center;""> &nbsp &nbsp &nbsp How responsible are YOU for the outcome ?  &nbsp &nbsp </p>""",,2,You,You,26/05/2020,1.5905E+12,26/05/2020,1.5905E+12,,
5d4755febdd31c0019bb78e3,8551490,25,M,scaleresp,34,2,1,1,1,3,10,0,1089,2011.9,83,,195205,0.0-52.0,html-slider-response,52,"<p style=font-size:16px; text-align:center;"">  How responsible is Player 82 for the outcome ? </p>""",,4,Player 82,Player 82,26/05/2020,1.5905E+12,26/05/2020,1.5905E+12,,
5d4755febdd31c0019bb78e3,8551490,25,M,scaleresp,29,1,2,1,1,12,16,1,927,1561.6,18,,206424,0.0-57.0,html-slider-response,57,"<p style=font-size:16px; text-align:center;"">  How responsible is Player 34 for the outcome ? </p>""",,3,Player 34,Player 34,26/05/2020,1.5905E+12,26/05/2020,1.5905E+12,,
5d4755febdd31c0019bb78e3,8551490,25,M,scaleresp,22,2,2,1,1,11,19,0,993,1782.1,75,,218001,0.0-62.0,html-slider-response,62,"<p style=font-size:16px; text-align:center;""> &nbsp &nbsp &nbsp How responsible are YOU for the outcome ?  &nbsp &nbsp </p>""",,2,You,You,26/05/2020,1.5905E+12,26/05/2020,1.5905E+12,,
5d4755febdd31c0019bb78e3,8551490,25,M,scaleresp,10,2,1,1,1,14,20,0,1098,1665.6,63,,229381,0.0-67.0,html-slider-response,67,"<p style=font-size:16px; text-align:center;"">  How responsible is Player 50 for the outcome ? </p>""",,1,Player 50,Player 50,26/05/2020,1.5905E+12,26/05/2020,1.5905E+12,,
5d4755febdd31c0019bb78e3,8551490,25,M,scaleresp,35,1,1,2,1,5,7,1,948,1210,76,,240251,0.0-72.0,html-slider-response,72,"<p style=font-size:16px; text-align:center;"">  How responsible is Player 16 for the outcome ? </p>""",,4,Player 82,Player 16,26/05/2020,1.5905E+12,26/05/2020,1.5905E+12,,
5d4755febdd31c0019bb78e3,8551490,25,M,scaleresp,18,2,1,1,1,17,20,1,990,1660.8,100,,251596,0.0-77.0,html-slider-response,77,"<p style=font-size:16px; text-align:center;""> &nbsp &nbsp &nbsp How responsible are YOU for the outcome ?  &nbsp &nbsp </p>""",,2,You,You,26/05/2020,1.5905E+12,26/05/2020,1.5905E+12,,
5ab54f75fa3b4e000172c7a6,1818214,,,surveyid,,,,,,,,,,28549,,,45768,0.0-3.0,survey-text,3,,"{Q0"":""5ab54f75fa3b4e000172c7a6""}""",,,,26/05/2020,1.5905E+12,26/05/2020,1.5905E+12,,
5d4755febdd31c0019bb78e3,8551490,25,M,scaleresp,28,2,1,2,1,17,18,0,1429,1402.9,84,,263327,0.0-82.0,html-slider-response,82,"<p style=font-size:16px; text-align:center;"">  How responsible is Player 82 for the outcome ? </p>""",,3,Player 34,Player 82,26/05/2020,1.5905E+12,26/05/2020,1.5905E+12,,
5ab54f75fa3b4e000172c7a6,1818214,31,M,survey,,,,,,,,,,8406,,,54193,0.0-4.0,survey-text,4,,"{Q0"":""31""","Q1:""M""}""",,,,26/05/2020,1.5905E+12,26/05/2020,1.5905E+12,
5d4755febdd31c0019bb78e3,8551490,25,M,scaleresp,39,1,2,2,1,7,19,1,943,1087.4,75,,274228,0.0-87.0,html-slider-response,87,"<p style=font-size:16px; text-align:center;"">  How responsible is Player 16 for the outcome ? </p>""",,4,Player 82,Player 16,26/05/2020,1.5905E+12,26/05/2020,1.5905E+12,,
5d4755febdd31c0019bb78e3,8551490,25,M,scaleresp,8,2,2,2,1,13,19,0,612,1341.5,77,,285197,0.0-92.0,html-slider-response,92,"<p style=font-size:16px; text-align:center;"">  How responsible is Player 34 for the outcome ? </p>""",,0,Player 16,Player 34,26/05/2020,1.5905E+12,26/05/2020,1.5905E+12,,
5d4755febdd31c0019bb78e3,8551490,25,M,scaleresp,19,1,1,2,1,7,17,1,1019,1366.9,78,,296379,0.0-97.0,html-slider-response,97,"<p style=font-size:16px; text-align:center;""> &nbsp &nbsp &nbsp How responsible are YOU for the outcome ?  &nbsp &nbsp </p>""",,2,You,Player 34,26/05/2020,1.5905E+12,26/05/2020,1.5905E+12,,
5d4755febdd31c0019bb78e3,8551490,25,M,scaleresp,3,1,1,2,1,10,19,0,1378,1205.8,84,,307942,0.0-102.0,html-slider-response,102,"<p style=font-size:16px; text-align:center;"">  How responsible is Player 82 for the outcome ? </p>""",,0,Player 16,Player 82,26/05/2020,1.5905E+12,26/05/2020,1.5905E+12,,
5d4755febdd31c0019bb78e3,8551490,25,M,scaleresp,38,2,2,1,1,7,16,1,838,1418.1,12,,319130,0.0-107.0,html-slider-response,107,"<p style=font-size:16px; text-align:center;"">  How responsible is Player 82 for the outcome ? </p>""",,4,Player 82,Player 82,26/05/2020,1.5905E+12,26/05/2020,1.5905E+12,,
5d4755febdd31c0019bb78e3,8551490,25,M,scaleresp,4,2,1,2,2,13,20,1,853,1242.4,84,,334580,0.0-113.0,html-slider-response,113,"<p style=font-size:16px; text-align:center;"">  How responsible is Player 82 for the outcome ? </p>""",,0,Player 16,Player 82,26/05/2020,1.5905E+12,26/05/2020,1.5905E+12,,
5ab54f75fa3b4e000172c7a6,1818214,31,M,scaleresp,6,2,2,1,1,8,17,,,,,,125083,0.0-12.0,html-slider-response,12,"<p style=font-size:16px; text-align:center;"">  How responsible is Player 42 for the outcome ? </p>""",,0,Player 42,Player 42,26/05/2020,1.5905E+12,26/05/2020,1.5905E+12,,
5d4755febdd31c0019bb78e3,8551490,25,M,scaleresp,23,1,2,2,2,5,12,0,929,1432.2,70,,345917,0.0-118.0,html-slider-response,118,"<p style=font-size:16px; text-align:center;""> &nbsp &nbsp &nbsp How responsible are YOU for the outcome ?  &nbsp &nbsp </p>""",,2,You,Player 16,26/05/2020,1.5905E+12,26/05/2020,1.5905E+12,,
5ab54f75fa3b4e000172c7a6,1818214,31,M,scaleresp,14,2,2,1,1,7,19,0,1783,4273,61,,139831,0.0-17.0,html-slider-response,17,"<p style=font-size:16px; text-align:center;"">  How responsible is Player 18 for the outcome ? </p>""",,1,Player 18,Player 18,26/05/2020,1.5905E+12,26/05/2020,1.5905E+12,,
5ab54f75fa3b4e000172c7a6,1818214,31,M,scaleresp,25,1,1,1,1,4,10,1,1852,3107,73,,153811,0.0-22.0,html-slider-response,22,"<p style=font-size:16px; text-align:center;"">  How responsible is Player 06 for the outcome ? </p>""",,3,Player 06,Player 06,26/05/2020,1.5905E+12,26/05/2020,1.5905E+12,,
5d4755febdd31c0019bb78e3,8551490,25,M,scaleresp,27,1,1,2,2,2,14,1,600,9340.9,65,,364718,0.0-123.0,html-slider-response,123,"<p style=font-size:16px; text-align:center;"">  How responsible is Player 16 for the outcome ? </p>""",,3,Player 34,Player 16,26/05/2020,1.5905E+12,26/05/2020,1.5905E+12,,
5d4755febdd31c0019bb78e3,8551490,25,M,scaleresp,33,1,1,1,2,1,11,1,1407,1125.2,91,,375879,0.0-128.0,html-slider-response,128,"<p style=font-size:16px; text-align:center;"">  How responsible is Player 82 for the outcome ? </p>""",,4,Player 82,Player 82,26/05/2020,1.5905E+12,26/05/2020,1.5905E+12,,
5ab54f75fa3b4e000172c7a6,1818214,31,M,scaleresp,4,2,1,2,1,8,12,0,1539,3445,59,,167835,0.0-27.0,html-slider-response,27,"<p style=font-size:16px; text-align:center;"">  How responsible is Player 06 for the outcome ? </p>""",,0,Player 42,Player 06,26/05/2020,1.5905E+12,26/05/2020,1.5905E+12,,
5d4755febdd31c0019bb78e3,8551490,25,M,scaleresp,14,2,2,1,2,2,3,0,635,1097.8,6,,386203,0.0-133.0,html-slider-response,133,"<p style=font-size:16px; text-align:center;"">  How responsible is Player 50 for the outcome ? </p>""",,1,Player 50,Player 50,26/05/2020,1.5905E+12,26/05/2020,1.5905E+12,,
5ab54f75fa3b4e000172c7a6,1818214,31,M,scaleresp,7,1,2,2,1,6,7,1,1367,3011,53,,181311,0.0-32.0,html-slider-response,32,"<p style=font-size:16px; text-align:center;"">  How responsible is Player 18 for the outcome ? </p>""",,0,Player 42,Player 18,26/05/2020,1.5905E+12,26/05/2020,1.5905E+12,,
5d4755febdd31c0019bb78e3,8551490,25,M,scaleresp,25,1,1,1,2,9,14,0,888,1018.3,97,,396951,0.0-138.0,html-slider-response,138,"<p style=font-size:16px; text-align:center;"">  How responsible is Player 34 for the outcome ? </p>""",,3,Player 34,Player 34,26/05/2020,1.5905E+12,26/05/2020,1.5905E+12,,
5ab54f75fa3b4e000172c7a6,1818214,31,M,scaleresp,33,1,1,1,1,12,18,0,1636,2985,68,,195028,0.0-37.0,html-slider-response,37,"<p style=font-size:16px; text-align:center;"">  How responsible is Player 37 for the outcome ? </p>""",,4,Player 37,Player 37,26/05/2020,1.5905E+12,26/05/2020,1.5905E+12,,
5d4755febdd31c0019bb78e3,8551490,25,M,scaleresp,7,1,2,2,2,1,20,1,1345,1412.1,70,,408766,0.0-143.0,html-slider-response,143,"<p style=font-size:16px; text-align:center;"">  How responsible is Player 34 for the outcome ? </p>""",,0,Player 16,Player 34,26/05/2020,1.5905E+12,26/05/2020,1.5905E+12,,
5ab54f75fa3b4e000172c7a6,1818214,31,M,scaleresp,15,1,2,2,1,5,11,0,1440,3198,45,,208648,0.0-42.0,html-slider-response,42,"<p style=font-size:16px; text-align:center;"">  How responsible is Player 37 for the outcome ? </p>""",,1,Player 18,Player 37,26/05/2020,1.5905E+12,26/05/2020,1.5905E+12,,
5d4755febdd31c0019bb78e3,8551490,25,M,scaleresp,13,1,2,1,2,16,17,1,806,2566.7,39,,420892,0.0-148.0,html-slider-response,148,"<p style=font-size:16px; text-align:center;"">  How responsible is Player 50 for the outcome ? </p>""",,1,Player 50,Player 50,26/05/2020,1.5905E+12,26/05/2020,1.5905E+12,,
5d4a0c84029c3000010a8718,7488572,,,surveyid,,,,,,,,,,17121,,,83673,0.0-3.0,survey-text,3,,"{Q0"":""5d4a0c84029c3000010a8718""}""",,,,26/05/2020,1.5905E+12,26/05/2020,1.5905E+12,,
5d4755febdd31c0019bb78e3,8551490,25,M,scaleresp,11,1,1,2,2,1,17,0,752,1181.4,74,,431571,0.0-153.0,html-slider-response,153,"<p style=font-size:16px; text-align:center;"">  How responsible is Player 34 for the outcome ? </p>""",,1,Player 50,Player 34,26/05/2020,1.5905E+12,26/05/2020,1.5905E+12,,
5ab54f75fa3b4e000172c7a6,1818214,31,M,scaleresp,11,1,1,2,1,8,13,1,1567,3211,59,,222222,0.0-47.0,html-slider-response,47,"<p style=font-size:16px; text-align:center;"">  How responsible is Player 37 for the outcome ? </p>""",,1,Player 18,Player 37,26/05/2020,1.5905E+12,26/05/2020,1.5905E+12,,
5d4a0c84029c3000010a8718,7488572,20,M,survey,,,,,,,,,,16311,,,99987,0.0-4.0,survey-text,4,,"{Q0"":""20""","Q1:""M""}""",,,,26/05/2020,1.5905E+12,26/05/2020,1.5905E+12,
5ab54f75fa3b4e000172c7a6,1818214,31,M,scaleresp,31,1,2,2,1,15,18,,,,,,233237,0.0-52.0,html-slider-response,52,"<p style=font-size:16px; text-align:center;"">  How responsible is Player 37 for the outcome ? </p>""",,3,Player 06,Player 37,26/05/2020,1.5905E+12,26/05/2020,1.5905E+12,,
5d4755febdd31c0019bb78e3,8551490,25,M,scaleresp,5,1,2,1,2,3,9,0,1231,1431.7,68,,443161,0.0-158.0,html-slider-response,158,"<p style=font-size:16px; text-align:center;"">  How responsible is Player 16 for the outcome ? </p>""",,0,Player 16,Player 16,26/05/2020,1.5905E+12,26/05/2020,1.5905E+12,,
5d4755febdd31c0019bb78e3,8551490,25,M,scaleresp,30,2,2,1,2,11,12,1,1338,1776.8,65,,455040,0.0-163.0,html-slider-response,163,"<p style=font-size:16px; text-align:center;"">  How responsible is Player 34 for the outcome ? </p>""",,3,Player 34,Player 34,26/05/2020,1.5905E+12,26/05/2020,1.5905E+12,,
5ab54f75fa3b4e000172c7a6,1818214,31,M,scaleresp,9,1,1,1,1,5,9,0,1701,2567,65,,246487,0.0-57.0,html-slider-response,57,"<p style=font-size:16px; text-align:center;"">  How responsible is Player 18 for the outcome ? </p>""",,1,Player 18,Player 18,26/05/2020,1.5905E+12,26/05/2020,1.5905E+12,,
5d4755febdd31c0019bb78e3,8551490,25,M,scaleresp,32,2,2,2,2,14,15,0,806,1138.4,80,,465834,0.0-168.0,html-slider-response,168,"<p style=font-size:16px; text-align:center;"">  How responsible is Player 50 for the outcome ? </p>""",,3,Player 34,Player 50,26/05/2020,1.5905E+12,26/05/2020,1.5905E+12,,
5ab54f75fa3b4e000172c7a6,1818214,31,M,scaleresp,27,1,1,2,1,14,20,1,1502,2981,57,,259911,0.0-62.0,html-slider-response,62,"<p style=font-size:16px; text-align:center;"">  How responsible is Player 42 for the outcome ? </p>""",,3,Player 06,Player 42,26/05/2020,1.5905E+12,26/05/2020,1.5905E+12,,
5d4755febdd31c0019bb78e3,8551490,25,M,scaleresp,20,2,1,2,2,9,13,0,1279,1855.4,69,,477737,0.0-173.0,html-slider-response,173,"<p style=font-size:16px; text-align:center;""> &nbsp &nbsp &nbsp How responsible are YOU for the outcome ?  &nbsp &nbsp </p>""",,2,You,Player 34,26/05/2020,1.5905E+12,26/05/2020,1.5905E+12,,
5ab54f75fa3b4e000172c7a6,1818214,31,M,scaleresp,16,2,2,2,1,1,7,1,1563,3082,57,,273431,0.0-67.0,html-slider-response,67,"<p style=font-size:16px; text-align:center;"">  How responsible is Player 06 for the outcome ? </p>""",,1,Player 18,Player 06,26/05/2020,1.5905E+12,26/05/2020,1.5905E+12,,
5d4755febdd31c0019bb78e3,8551490,25,M,scaleresp,16,2,2,2,2,6,18,1,730,2034.4,82,,489436,0.0-178.0,html-slider-response,178,"<p style=font-size:16px; text-align:center;"">  How responsible is Player 16 for the outcome ? </p>""",,1,Player 50,Player 16,26/05/2020,1.5905E+12,26/05/2020,1.5905E+12,,
5ab54f75fa3b4e000172c7a6,1818214,31,M,scaleresp,21,1,2,1,1,12,15,0,1710,3992,63,,288068,0.0-72.0,html-slider-response,72,"<p style=font-size:16px; text-align:center;""> &nbsp &nbsp &nbsp How responsible are YOU for the outcome ?  &nbsp &nbsp </p>""",,2,You,You,26/05/2020,1.5905E+12,26/05/2020,1.5905E+12,,
5d4755febdd31c0019bb78e3,8551490,25,M,scaleresp,6,2,2,1,2,5,18,0,934,3255.8,80,,502690,0.0-183.0,html-slider-response,183,"<p style=font-size:16px; text-align:center;"">  How responsible is Player 16 for the outcome ? </p>""",,0,Player 16,Player 16,26/05/2020,1.5905E+12,26/05/2020,1.5905E+12,,
5d4755febdd31c0019bb78e3,8551490,25,M,scaleresp,40,2,2,2,2,8,12,0,1610,1091.8,80,,513982,0.0-188.0,html-slider-response,188,"<p style=font-size:16px; text-align:center;"">  How responsible is Player 16 for the outcome ? </p>""",,4,Player 82,Player 16,26/05/2020,1.5905E+12,26/05/2020,1.5905E+12,,
5d4755febdd31c0019bb78e3,8551490,25,M,scaleresp,24,2,2,2,2,7,13,1,1387,2011.5,28,,526015,0.0-193.0,html-slider-response,193,"<p style=font-size:16px; text-align:center;""> &nbsp &nbsp &nbsp How responsible are YOU for the outcome ?  &nbsp &nbsp </p>""",,2,You,Player 50,26/05/2020,1.5905E+12,26/05/2020,1.5905E+12,,
5d4755febdd31c0019bb78e3,8551490,25,M,scaleresp,17,1,1,1,2,2,19,0,1067,948.9,65,,536724,0.0-198.0,html-slider-response,198,"<p style=font-size:16px; text-align:center;""> &nbsp &nbsp &nbsp How responsible are YOU for the outcome ?  &nbsp &nbsp </p>""",,2,You,You,26/05/2020,1.5905E+12,26/05/2020,1.5905E+12,,
5d4755febdd31c0019bb78e3,8551490,25,M,scaleresp,31,1,2,2,2,4,6,1,766,1065.7,70,,547352,0.0-203.0,html-slider-response,203,"<p style=font-size:16px; text-align:center;"">  How responsible is Player 16 for the outcome ? </p>""",,3,Player 34,Player 16,26/05/2020,1.5905E+12,26/05/2020,1.5905E+12,,
5d4755febdd31c0019bb78e3,8551490,25,M,scaleresp,26,2,1,1,2,8,10,0,1375,1472.9,36,,558903,0.0-208.0,html-slider-response,208,"<p style=font-size:16px; text-align:center;"">  How responsible is Player 34 for the outcome ? </p>""",,3,Player 34,Player 34,26/05/2020,1.5905E+12,26/05/2020,1.5905E+12,,
5ab54f75fa3b4e000172c7a6,1818214,31,M,scaleresp,8,2,2,2,1,6,11,0,1153,53737,61,,351520,0.0-77.0,html-slider-response,77,"<p style=font-size:16px; text-align:center;"">  How responsible is Player 37 for the outcome ? </p>""",,0,Player 42,Player 37,26/05/2020,1.5905E+12,26/05/2020,1.5905E+12,,
5ab54f75fa3b4e000172c7a6,1818214,31,M,scaleresp,13,1,2,1,1,10,15,1,921,2020,63,,363151,0.0-82.0,html-slider-response,82,"<p style=font-size:16px; text-align:center;"">  How responsible is Player 18 for the outcome ? </p>""",,1,Player 18,Player 18,26/05/2020,1.5905E+12,26/05/2020,1.5905E+12,,
5d4755febdd31c0019bb78e3,8551490,25,M,scaleresp,40,2,2,2,3,2,5,1,1669,1234.9,12,,573607,0.0-214.0,html-slider-response,214,"<p style=font-size:16px; text-align:center;"">  How responsible is Player 50 for the outcome ? </p>""",,4,Player 82,Player 50,26/05/2020,1.5905E+12,26/05/2020,1.5905E+12,,
5d4755febdd31c0019bb78e3,8551490,25,M,scaleresp,11,1,1,2,3,3,16,0,729,1013.8,76,,584049,0.0-219.0,html-slider-response,219,"<p style=font-size:16px; text-align:center;"">  How responsible is Player 16 for the outcome ? </p>""",,1,Player 50,Player 16,26/05/2020,1.5905E+12,26/05/2020,1.5905E+12,,
5ab54f75fa3b4e000172c7a6,1818214,31,M,scaleresp,17,1,1,1,1,1,11,1,1256,2943,61,,376092,0.0-87.0,html-slider-response,87,"<p style=font-size:16px; text-align:center;""> &nbsp &nbsp &nbsp How responsible are YOU for the outcome ?  &nbsp &nbsp </p>""",,2,You,You,26/05/2020,1.5905E+12,26/05/2020,1.5905E+12,,
5d4755febdd31c0019bb78e3,8551490,25,M,scaleresp,24,2,2,2,3,8,14,,,,,,594918,0.0-224.0,html-slider-response,224,"<p style=font-size:16px; text-align:center;""> &nbsp &nbsp &nbsp How responsible are YOU for the outcome ?  &nbsp &nbsp </p>""",,2,You,Player 34,26/05/2020,1.5905E+12,26/05/2020,1.5905E+12,,
5d4755febdd31c0019bb78e3,8551490,25,M,scaleresp,35,1,1,2,3,11,14,0,1096,1088.1,82,,605717,0.0-229.0,html-slider-response,229,"<p style=font-size:16px; text-align:center;"">  How responsible is Player 16 for the outcome ? </p>""",,4,Player 82,Player 16,26/05/2020,1.5905E+12,26/05/2020,1.5905E+12,,
5d4755febdd31c0019bb78e3,8551490,25,M,scaleresp,18,2,1,1,3,7,12,1,779,702.9,99,,616075,0.0-234.0,html-slider-response,234,"<p style=font-size:16px; text-align:center;""> &nbsp &nbsp &nbsp How responsible are YOU for the outcome ?  &nbsp &nbsp </p>""",,2,You,You,26/05/2020,1.5905E+12,26/05/2020,1.5905E+12,,
5d4755febdd31c0019bb78e3,8551490,25,M,scaleresp,30,2,2,1,3,12,18,1,1854,1261.8,70,,627943,0.0-239.0,html-slider-response,239,"<p style=font-size:16px; text-align:center;"">  How responsible is Player 34 for the outcome ? </p>""",,3,Player 34,Player 34,26/05/2020,1.5905E+12,26/05/2020,1.5905E+12,,
5ab54f75fa3b4e000172c7a6,1818214,31,M,scaleresp,37,1,2,1,1,5,19,0,1533,36791,67,,423480,0.0-92.0,html-slider-response,92,"<p style=font-size:16px; text-align:center;"">  How responsible is Player 37 for the outcome ? </p>""",,4,Player 37,Player 37,26/05/2020,1.5905E+12,26/05/2020,1.5905E+12,,
5d4755febdd31c0019bb78e3,8551490,25,M,scaleresp,16,2,2,2,3,1,6,0,1235,822.4,67,,639040,0.0-244.0,html-slider-response,244,"<p style=font-size:16px; text-align:center;"">  How responsible is Player 82 for the outcome ? </p>""",,1,Player 50,Player 82,26/05/2020,1.5905E+12,26/05/2020,1.5905E+12,,
5ab54f75fa3b4e000172c7a6,1818214,31,M,scaleresp,30,2,2,1,1,1,10,1,1408,2553,57,,436304,0.0-97.0,html-slider-response,97,"<p style=font-size:16px; text-align:center;"">  How responsible is Player 06 for the outcome ? </p>""",,3,Player 06,Player 06,26/05/2020,1.5905E+12,26/05/2020,1.5905E+12,,
5d4755febdd31c0019bb78e3,8551490,25,M,scaleresp,36,2,1,2,3,8,15,0,865,1123.5,86,,649874,0.0-249.0,html-slider-response,249,"<p style=font-size:16px; text-align:center;"">  How responsible is Player 50 for the outcome ? </p>""",,4,Player 82,Player 50,26/05/2020,1.5905E+12,26/05/2020,1.5905E+12,,
5ab54f75fa3b4e000172c7a6,1818214,31,M,scaleresp,38,2,2,1,1,3,10,1,1246,2362,60,,448720,0.0-102.0,html-slider-response,102,"<p style=font-size:16px; text-align:center;"">  How responsible is Player 37 for the outcome ? </p>""",,4,Player 37,Player 37,26/05/2020,1.5905E+12,26/05/2020,1.5905E+12,,
5d4755febdd31c0019bb78e3,8551490,25,M,scaleresp,20,2,1,2,3,4,11,1,861,1077.9,71,,660504,0.0-254.0,html-slider-response,254,"<p style=font-size:16px; text-align:center;""> &nbsp &nbsp &nbsp How responsible are YOU for the outcome ?  &nbsp &nbsp </p>""",,2,You,Player 50,26/05/2020,1.5905E+12,26/05/2020,1.5905E+12,,
5ab54f75fa3b4e000172c7a6,1818214,31,M,scaleresp,24,2,2,2,1,6,13,,,,,,459668,0.0-107.0,html-slider-response,107,"<p style=font-size:16px; text-align:center;""> &nbsp &nbsp &nbsp How responsible are YOU for the outcome ?  &nbsp &nbsp </p>""",,2,You,Player 37,26/05/2020,1.5905E+12,26/05/2020,1.5905E+12,,
5d4755febdd31c0019bb78e3,8551490,25,M,scaleresp,1,1,1,1,3,5,19,,,,,,671586,0.0-259.0,html-slider-response,259,"<p style=font-size:16px; text-align:center;"">  How responsible is Player 16 for the outcome ? </p>""",,0,Player 16,Player 16,26/05/2020,1.5905E+12,26/05/2020,1.5905E+12,,
5d4755febdd31c0019bb78e3,8551490,25,M,scaleresp,38,2,2,1,3,7,14,0,996,1036.4,81,,682657,0.0-264.0,html-slider-response,264,"<p style=font-size:16px; text-align:center;"">  How responsible is Player 82 for the outcome ? </p>""",,4,Player 82,Player 82,26/05/2020,1.5905E+12,26/05/2020,1.5905E+12,,
5d4a0c84029c3000010a8718,7488572,20,M,scaleresp,29,1,2,1,1,11,20,1,1330,8783.125,48,,348361,0.0-12.0,html-slider-response,12,"<p style=font-size:16px; text-align:center;"">  How responsible is Player 20 for the outcome ? </p>""",,3,Player 20,Player 20,26/05/2020,1.5905E+12,26/05/2020,1.5905E+12,,
5d4755febdd31c0019bb78e3,8551490,25,M,scaleresp,28,2,1,2,3,2,10,1,723,909.8,74,,693241,0.0-269.0,html-slider-response,269,"<p style=font-size:16px; text-align:center;"">  How responsible is Player 82 for the outcome ? </p>""",,3,Player 34,Player 82,26/05/2020,1.5905E+12,26/05/2020,1.5905E+12,,
5d4755febdd31c0019bb78e3,8551490,25,M,scaleresp,32,2,2,2,3,10,16,0,1246,1006.4,86,,704518,0.0-274.0,html-slider-response,274,"<p style=font-size:16px; text-align:center;"">  How responsible is Player 82 for the outcome ? </p>""",,3,Player 34,Player 82,26/05/2020,1.5905E+12,26/05/2020,1.5905E+12,,
5d4a0c84029c3000010a8718,7488572,20,M,scaleresp,13,1,2,1,1,6,14,1,1523,3502.875,22,,362247,0.0-17.0,html-slider-response,17,"<p style=font-size:16px; text-align:center;"">  How responsible is Player 58 for the outcome ? </p>""",,1,Player 58,Player 58,26/05/2020,1.5905E+12,26/05/2020,1.5905E+12,,
5d4755febdd31c0019bb78e3,8551490,25,M,scaleresp,6,2,2,1,3,4,19,1,808,970.1,81,,714912,0.0-279.0,html-slider-response,279,"<p style=font-size:16px; text-align:center;"">  How responsible is Player 16 for the outcome ? </p>""",,0,Player 16,Player 16,26/05/2020,1.5905E+12,26/05/2020,1.5905E+12,,
5d4a0c84029c3000010a8718,7488572,20,M,scaleresp,4,2,1,2,1,7,20,0,1327,2142.585,65,,374441,0.0-22.0,html-slider-response,22,"<p style=font-size:16px; text-align:center;"">  How responsible is Player 58 for the outcome ? </p>""",,0,Player 43,Player 58,26/05/2020,1.5905E+12,26/05/2020,1.5905E+12,,
5d4755febdd31c0019bb78e3,8551490,25,M,scaleresp,39,1,2,2,3,1,19,0,938,1964.6,49,,726517,0.0-284.0,html-slider-response,284,"<p style=font-size:16px; text-align:center;"">  How responsible is Player 16 for the outcome ? </p>""",,4,Player 82,Player 16,26/05/2020,1.5905E+12,26/05/2020,1.5905E+12,,
5d4a0c84029c3000010a8718,7488572,20,M,scaleresp,21,1,2,1,1,1,17,0,1487,2898.265,61,,387462,0.0-27.0,html-slider-response,27,"<p style=font-size:16px; text-align:center;""> &nbsp &nbsp &nbsp How responsible are YOU for the outcome ?  &nbsp &nbsp </p>""",,2,You,You,26/05/2020,1.5905E+12,26/05/2020,1.5905E+12,,
5d4755febdd31c0019bb78e3,8551490,25,M,scaleresp,9,1,1,1,3,9,16,1,753,1034.4,71,,737045,0.0-289.0,html-slider-response,289,"<p style=font-size:16px; text-align:center;"">  How responsible is Player 50 for the outcome ? </p>""",,1,Player 50,Player 50,26/05/2020,1.5905E+12,26/05/2020,1.5905E+12,,
5d4a0c84029c3000010a8718,7488572,20,M,scaleresp,35,1,1,2,1,3,15,0,1183,3165.76,70,,400362,0.0-32.0,html-slider-response,32,"<p style=font-size:16px; text-align:center;"">  How responsible is Player 43 for the outcome ? </p>""",,4,Player 76,Player 43,26/05/2020,1.5905E+12,26/05/2020,1.5905E+12,,
5d4755febdd31c0019bb78e3,8551490,25,M,scaleresp,31,1,2,2,3,6,10,0,860,858.8,88,,747698,0.0-294.0,html-slider-response,294,"<p style=font-size:16px; text-align:center;"">  How responsible is Player 16 for the outcome ? </p>""",,3,Player 34,Player 16,26/05/2020,1.5905E+12,26/05/2020,1.5905E+12,,
5d4a0c84029c3000010a8718,7488572,20,M,scaleresp,16,2,2,2,1,6,15,0,1353,2398.01,38,,412732,0.0-37.0,html-slider-response,37,"<p style=font-size:16px; text-align:center;"">  How responsible is Player 76 for the outcome ? </p>""",,1,Player 58,Player 76,26/05/2020,1.5905E+12,26/05/2020,1.5905E+12,,
5d4755febdd31c0019bb78e3,8551490,25,M,scaleresp,15,1,2,2,3,9,20,0,1297,709.2,97,,758757,0.0-299.0,html-slider-response,299,"<p style=font-size:16px; text-align:center;"">  How responsible is Player 16 for the outcome ? </p>""",,1,Player 50,Player 16,26/05/2020,1.5905E+12,26/05/2020,1.5905E+12,,
5ab54f75fa3b4e000172c7a6,1818214,31,M,scaleresp,29,1,2,1,2,2,7,,,,,,550666,0.0-113.0,html-slider-response,113,"<p style=font-size:16px; text-align:center;"">  How responsible is Player 06 for the outcome ? </p>""",,3,Player 06,Player 06,26/05/2020,1.5905E+12,26/05/2020,1.5905E+12,,
5d4755febdd31c0019bb78e3,8551490,25,M,scaleresp,17,1,1,1,3,9,19,0,879,950.2,100,,769534,0.0-304.0,html-slider-response,304,"<p style=font-size:16px; text-align:center;""> &nbsp &nbsp &nbsp How responsible are YOU for the outcome ?  &nbsp &nbsp </p>""",,2,You,You,26/05/2020,1.5905E+12,26/05/2020,1.5905E+12,,
5d4a0c84029c3000010a8718,7488572,20,M,scaleresp,9,1,1,1,1,1,10,1,1228,6415.265,0,,429078,0.0-42.0,html-slider-response,42,"<p style=font-size:16px; text-align:center;"">  How responsible is Player 58 for the outcome ? </p>""",,1,Player 58,Player 58,26/05/2020,1.5905E+12,26/05/2020,1.5905E+12,,
5ab54f75fa3b4e000172c7a6,1818214,31,M,scaleresp,36,2,1,2,2,2,17,1,1160,2760,53,,563291,0.0-118.0,html-slider-response,118,"<p style=font-size:16px; text-align:center;"">  How responsible is Player 42 for the outcome ? </p>""",,4,Player 37,Player 42,26/05/2020,1.5905E+12,26/05/2020,1.5905E+12,,
5d4755febdd31c0019bb78e3,8551490,25,M,scaleresp,34,2,1,1,3,10,14,1,828,970.9,78,,780255,0.0-309.0,html-slider-response,309,"<p style=font-size:16px; text-align:center;"">  How responsible is Player 82 for the outcome ? </p>""",,4,Player 82,Player 82,26/05/2020,1.5905E+12,26/05/2020,1.5905E+12,,
5d4a0c84029c3000010a8718,7488572,20,M,scaleresp,22,2,2,1,1,7,14,,,,,,440009,0.0-47.0,html-slider-response,47,"<p style=font-size:16px; text-align:center;""> &nbsp &nbsp &nbsp How responsible are YOU for the outcome ?  &nbsp &nbsp </p>""",,2,You,You,26/05/2020,1.5905E+12,26/05/2020,1.5905E+12,,
5ab54f75fa3b4e000172c7a6,1818214,31,M,scaleresp,26,2,1,1,2,7,12,1,1534,2204,70,,576082,0.0-123.0,html-slider-response,123,"<p style=font-size:16px; text-align:center;"">  How responsible is Player 06 for the outcome ? </p>""",,3,Player 06,Player 06,26/05/2020,1.5905E+12,26/05/2020,1.5905E+12,,
5d4755febdd31c0019bb78e3,8551490,25,M,scaleresp,3,1,1,2,4,12,17,0,741,979.3,75,,793317,0.0-315.0,html-slider-response,315,"<p style=font-size:16px; text-align:center;"">  How responsible is Player 34 for the outcome ? </p>""",,0,Player 16,Player 34,26/05/2020,1.5905E+12,26/05/2020,1.5905E+12,,
5d4a0c84029c3000010a8718,7488572,20,M,scaleresp,12,2,1,2,1,4,12,0,1182,1912.455,95,,452019,0.0-52.0,html-slider-response,52,"<p style=font-size:16px; text-align:center;"">  How responsible is Player 20 for the outcome ? </p>""",,1,Player 58,Player 20,26/05/2020,1.5905E+12,26/05/2020,1.5905E+12,,
5ab54f75fa3b4e000172c7a6,1818214,31,M,scaleresp,3,1,1,2,2,6,14,0,1361,2312,71,,588382,0.0-128.0,html-slider-response,128,"<p style=font-size:16px; text-align:center;"">  How responsible is Player 18 for the outcome ? </p>""",,0,Player 42,Player 18,26/05/2020,1.5905E+12,26/05/2020,1.5905E+12,,
5d4755febdd31c0019bb78e3,8551490,25,M,scaleresp,21,1,2,1,4,3,11,0,1679,1292.1,52,,805221,0.0-320.0,html-slider-response,320,"<p style=font-size:16px; text-align:center;""> &nbsp &nbsp &nbsp How responsible are YOU for the outcome ?  &nbsp &nbsp </p>""",,2,You,You,26/05/2020,1.5905E+12,26/05/2020,1.5905E+12,,
5d4a0c84029c3000010a8718,7488572,20,M,scaleresp,18,2,1,1,1,9,16,1,1069,3525.705,63,,465309,0.0-57.0,html-slider-response,57,"<p style=font-size:16px; text-align:center;""> &nbsp &nbsp &nbsp How responsible are YOU for the outcome ?  &nbsp &nbsp </p>""",,2,You,You,26/05/2020,1.5905E+12,26/05/2020,1.5905E+12,,
5ab54f75fa3b4e000172c7a6,1818214,31,M,scaleresp,28,2,1,2,2,2,5,1,1509,2435,62,,601054,0.0-133.0,html-slider-response,133,"<p style=font-size:16px; text-align:center;"">  How responsible is Player 18 for the outcome ? </p>""",,3,Player 06,Player 18,26/05/2020,1.5905E+12,26/05/2020,1.5905E+12,,
5d4755febdd31c0019bb78e3,8551490,25,M,scaleresp,25,1,1,1,4,1,14,1,711,1332.8,48,,816051,0.0-325.0,html-slider-response,325,"<p style=font-size:16px; text-align:center;"">  How responsible is Player 34 for the outcome ? </p>""",,3,Player 34,Player 34,26/05/2020,1.5905E+12,26/05/2020,1.5905E+12,,
5ab54f75fa3b4e000172c7a6,1818214,31,M,scaleresp,34,2,1,1,2,1,12,1,1243,2782,67,,613846,0.0-138.0,html-slider-response,138,"<p style=font-size:16px; text-align:center;"">  How responsible is Player 37 for the outcome ? </p>""",,4,Player 37,Player 37,26/05/2020,1.5905E+12,26/05/2020,1.5905E+12,,
5d4a0c84029c3000010a8718,7488572,20,M,scaleresp,1,1,1,1,1,15,16,0,1516,5307.735,50,,481033,0.0-62.0,html-slider-response,62,"<p style=font-size:16px; text-align:center;"">  How responsible is Player 43 for the outcome ? </p>""",,0,Player 43,Player 43,26/05/2020,1.5905E+12,26/05/2020,1.5905E+12,,
5d4755febdd31c0019bb78e3,8551490,25,M,scaleresp,22,2,2,1,4,3,15,0,1311,1239.6,62,,827523,0.0-330.0,html-slider-response,330,"<p style=font-size:16px; text-align:center;""> &nbsp &nbsp &nbsp How responsible are YOU for the outcome ?  &nbsp &nbsp </p>""",,2,You,You,26/05/2020,1.5905E+12,26/05/2020,1.5905E+12,,
5d4a0c84029c3000010a8718,7488572,20,M,scaleresp,33,1,1,1,1,14,17,0,1284,2055.865,70,,493130,0.0-67.0,html-slider-response,67,"<p style=font-size:16px; text-align:center;"">  How responsible is Player 76 for the outcome ? </p>""",,4,Player 76,Player 76,26/05/2020,1.5905E+12,26/05/2020,1.5905E+12,,
5d4755febdd31c0019bb78e3,8551490,25,M,scaleresp,14,2,2,1,4,13,14,1,882,1447.1,40,,838828,0.0-335.0,html-slider-response,335,"<p style=font-size:16px; text-align:center;"">  How responsible is Player 50 for the outcome ? </p>""",,1,Player 50,Player 50,26/05/2020,1.5905E+12,26/05/2020,1.5905E+12,,
5ab54f75fa3b4e000172c7a6,1818214,31,M,scaleresp,23,1,2,2,2,3,9,0,1731,7978,63,,632146,0.0-143.0,html-slider-response,143,"<p style=font-size:16px; text-align:center;""> &nbsp &nbsp &nbsp How responsible are YOU for the outcome ?  &nbsp &nbsp </p>""",,2,You,Player 18,26/05/2020,1.5905E+12,26/05/2020,1.5905E+12,,
5d4a0c84029c3000010a8718,7488572,20,M,scaleresp,27,1,1,2,1,4,19,1,1342,2182.93,32,,505282,0.0-72.0,html-slider-response,72,"<p style=font-size:16px; text-align:center;"">  How responsible is Player 43 for the outcome ? </p>""",,3,Player 20,Player 43,26/05/2020,1.5905E+12,26/05/2020,1.5905E+12,,
5d4755febdd31c0019bb78e3,8551490,25,M,scaleresp,10,2,1,1,4,6,14,0,1272,1313.5,68,,850263,0.0-340.0,html-slider-response,340,"<p style=font-size:16px; text-align:center;"">  How responsible is Player 50 for the outcome ? </p>""",,1,Player 50,Player 50,26/05/2020,1.5905E+12,26/05/2020,1.5905E+12,,
5ab54f75fa3b4e000172c7a6,1818214,31,M,scaleresp,22,2,2,1,2,2,19,,,,,,643165,0.0-148.0,html-slider-response,148,"<p style=font-size:16px; text-align:center;""> &nbsp &nbsp &nbsp How responsible are YOU for the outcome ?  &nbsp &nbsp </p>""",,2,You,You,26/05/2020,1.5905E+12,26/05/2020,1.5905E+12,,
5d4a0c84029c3000010a8718,7488572,20,M,scaleresp,36,2,1,2,1,16,20,1,1837,2314.285,16,,518212,0.0-77.0,html-slider-response,77,"<p style=font-size:16px; text-align:center;"">  How responsible is Player 43 for the outcome ? </p>""",,4,Player 76,Player 43,26/05/2020,1.5905E+12,26/05/2020,1.5905E+12,,
5d4755febdd31c0019bb78e3,8551490,25,M,scaleresp,5,1,2,1,4,4,15,1,971,1627.1,46,,861866,0.0-345.0,html-slider-response,345,"<p style=font-size:16px; text-align:center;"">  How responsible is Player 16 for the outcome ? </p>""",,0,Player 16,Player 16,26/05/2020,1.5905E+12,26/05/2020,1.5905E+12,,
5ab54f75fa3b4e000172c7a6,1818214,31,M,scaleresp,35,1,1,2,2,1,18,0,1465,3150,71,,656800,0.0-153.0,html-slider-response,153,"<p style=font-size:16px; text-align:center;"">  How responsible is Player 06 for the outcome ? </p>""",,4,Player 37,Player 06,26/05/2020,1.5905E+12,26/05/2020,1.5905E+12,,
5d4755febdd31c0019bb78e3,8551490,25,M,scaleresp,23,1,2,2,4,15,17,0,732,1259.5,67,,872698,0.0-350.0,html-slider-response,350,"<p style=font-size:16px; text-align:center;""> &nbsp &nbsp &nbsp How responsible are YOU for the outcome ?  &nbsp &nbsp </p>""",,2,You,Player 50,26/05/2020,1.5905E+12,26/05/2020,1.5905E+12,,
5d4a0c84029c3000010a8718,7488572,20,M,scaleresp,31,1,2,2,1,3,10,0,1061,2277.84,12,,530404,0.0-82.0,html-slider-response,82,"<p style=font-size:16px; text-align:center;"">  How responsible is Player 43 for the outcome ? </p>""",,3,Player 20,Player 43,26/05/2020,1.5905E+12,26/05/2020,1.5905E+12,,
5ab54f75fa3b4e000172c7a6,1818214,31,M,scaleresp,10,2,1,1,2,12,14,1,1503,2459,55,,669654,0.0-158.0,html-slider-response,158,"<p style=font-size:16px; text-align:center;"">  How responsible is Player 18 for the outcome ? </p>""",,1,Player 18,Player 18,26/05/2020,1.5905E+12,26/05/2020,1.5905E+12,,
5d4755febdd31c0019bb78e3,8551490,25,M,scaleresp,26,2,1,1,4,2,16,0,919,1226.1,62,,883801,0.0-355.0,html-slider-response,355,"<p style=font-size:16px; text-align:center;"">  How responsible is Player 34 for the outcome ? </p>""",,3,Player 34,Player 34,26/05/2020,1.5905E+12,26/05/2020,1.5905E+12,,
5d4a0c84029c3000010a8718,7488572,20,M,scaleresp,2,2,1,1,1,3,9,0,933,2384.02,69,,542632,0.0-87.0,html-slider-response,87,"<p style=font-size:16px; text-align:center;"">  How responsible is Player 43 for the outcome ? </p>""",,0,Player 43,Player 43,26/05/2020,1.5905E+12,26/05/2020,1.5905E+12,,
5ab54f75fa3b4e000172c7a6,1818214,31,M,scaleresp,18,2,1,1,2,6,18,1,1223,2456,55,,682276,0.0-163.0,html-slider-response,163,"<p style=font-size:16px; text-align:center;""> &nbsp &nbsp &nbsp How responsible are YOU for the outcome ?  &nbsp &nbsp </p>""",,2,You,You,26/05/2020,1.5905E+12,26/05/2020,1.5905E+12,,
5d4755febdd31c0019bb78e3,8551490,25,M,scaleresp,4,2,1,2,4,7,15,1,1201,1434.4,60,,895419,0.0-360.0,html-slider-response,360,"<p style=font-size:16px; text-align:center;"">  How responsible is Player 50 for the outcome ? </p>""",,0,Player 16,Player 50,26/05/2020,1.5905E+12,26/05/2020,1.5905E+12,,
5d4a0c84029c3000010a8718,7488572,20,M,scaleresp,30,2,2,1,1,4,18,0,1665,1763.635,57,,554896,0.0-92.0,html-slider-response,92,"<p style=font-size:16px; text-align:center;"">  How responsible is Player 20 for the outcome ? </p>""",,3,Player 20,Player 20,26/05/2020,1.5905E+12,26/05/2020,1.5905E+12,,
5ab54f75fa3b4e000172c7a6,1818214,31,M,scaleresp,32,2,2,2,2,10,11,1,1475,2633,56,,695062,0.0-168.0,html-slider-response,168,"<p style=font-size:16px; text-align:center;"">  How responsible is Player 18 for the outcome ? </p>""",,3,Player 06,Player 18,26/05/2020,1.5905E+12,26/05/2020,1.5905E+12,,
5d4755febdd31c0019bb78e3,8551490,25,M,scaleresp,29,1,2,1,4,5,8,0,818,1002.3,10,,906198,0.0-365.0,html-slider-response,365,"<p style=font-size:16px; text-align:center;"">  How responsible is Player 34 for the outcome ? </p>""",,3,Player 34,Player 34,26/05/2020,1.5905E+12,26/05/2020,1.5905E+12,,
5d4a0c84029c3000010a8718,7488572,20,M,scaleresp,5,1,2,1,1,9,15,1,1571,1897.225,73,,567374,0.0-97.0,html-slider-response,97,"<p style=font-size:16px; text-align:center;"">  How responsible is Player 43 for the outcome ? </p>""",,0,Player 43,Player 43,26/05/2020,1.5905E+12,26/05/2020,1.5905E+12,,
5d4755febdd31c0019bb78e3,8551490,25,M,scaleresp,33,1,1,1,4,4,18,0,796,1820.7,52,,917477,0.0-370.0,html-slider-response,370,"<p style=font-size:16px; text-align:center;"">  How responsible is Player 82 for the outcome ? </p>""",,4,Player 82,Player 82,26/05/2020,1.5905E+12,26/05/2020,1.5905E+12,,
5ab54f75fa3b4e000172c7a6,1818214,31,M,scaleresp,12,2,1,2,2,1,14,0,1459,3100,63,,708378,0.0-173.0,html-slider-response,173,"<p style=font-size:16px; text-align:center;"">  How responsible is Player 06 for the outcome ? </p>""",,1,Player 18,Player 06,26/05/2020,1.5905E+12,26/05/2020,1.5905E+12,,
5d4a0c84029c3000010a8718,7488572,20,M,scaleresp,17,1,1,1,1,4,9,,,,,,577943,0.0-102.0,html-slider-response,102,"<p style=font-size:16px; text-align:center;""> &nbsp &nbsp &nbsp How responsible are YOU for the outcome ?  &nbsp &nbsp </p>""",,2,You,You,26/05/2020,1.5905E+12,26/05/2020,1.5905E+12,,
5d4755febdd31c0019bb78e3,8551490,25,M,scaleresp,19,1,1,2,4,14,16,1,1402,2062,38,,929507,0.0-375.0,html-slider-response,375,"<p style=font-size:16px; text-align:center;""> &nbsp &nbsp &nbsp How responsible are YOU for the outcome ?  &nbsp &nbsp </p>""",,2,You,Player 82,26/05/2020,1.5905E+12,26/05/2020,1.5905E+12,,
5d4a0c84029c3000010a8718,7488572,20,M,scaleresp,10,2,1,1,1,17,18,,,,,,588888,0.0-107.0,html-slider-response,107,"<p style=font-size:16px; text-align:center;"">  How responsible is Player 58 for the outcome ? </p>""",,1,Player 58,Player 58,26/05/2020,1.5905E+12,26/05/2020,1.5905E+12,,
5ab54f75fa3b4e000172c7a6,1818214,31,M,scaleresp,1,1,1,1,2,9,19,1,1314,3629,55,,722150,0.0-178.0,html-slider-response,178,"<p style=font-size:16px; text-align:center;"">  How responsible is Player 42 for the outcome ? </p>""",,0,Player 42,Player 42,26/05/2020,1.5905E+12,26/05/2020,1.5905E+12,,
5d4755febdd31c0019bb78e3,8551490,25,M,scaleresp,8,2,2,2,4,3,19,,,,,,940158,0.0-380.0,html-slider-response,380,"<p style=font-size:16px; text-align:center;"">  How responsible is Player 82 for the outcome ? </p>""",,0,Player 16,Player 82,26/05/2020,1.5905E+12,26/05/2020,1.5905E+12,,
5ab54f75fa3b4e000172c7a6,1818214,31,M,scaleresp,19,1,1,2,2,14,18,1,1534,2673,57,,735022,0.0-183.0,html-slider-response,183,"<p style=font-size:16px; text-align:center;""> &nbsp &nbsp &nbsp How responsible are YOU for the outcome ?  &nbsp &nbsp </p>""",,2,You,Player 37,26/05/2020,1.5905E+12,26/05/2020,1.5905E+12,,
5d4a0c84029c3000010a8718,7488572,20,M,scaleresp,20,2,1,2,2,4,6,0,965,1998.245,63,,603327,0.0-113.0,html-slider-response,113,"<p style=font-size:16px; text-align:center;""> &nbsp &nbsp &nbsp How responsible are YOU for the outcome ?  &nbsp &nbsp </p>""",,2,You,Player 43,26/05/2020,1.5905E+12,26/05/2020,1.5905E+12,,
5d4755febdd31c0019bb78e3,8551490,25,M,scaleresp,2,2,1,1,4,3,8,0,1137,946.4,62,,951133,0.0-385.0,html-slider-response,385,"<p style=font-size:16px; text-align:center;"">  How responsible is Player 16 for the outcome ? </p>""",,0,Player 16,Player 16,26/05/2020,1.5905E+12,26/05/2020,1.5905E+12,,
5d4a0c84029c3000010a8718,7488572,20,M,scaleresp,23,1,2,2,2,2,3,0,1119,1603.03,67,,614697,0.0-118.0,html-slider-response,118,"<p style=font-size:16px; text-align:center;""> &nbsp &nbsp &nbsp How responsible are YOU for the outcome ?  &nbsp &nbsp </p>""",,2,You,Player 43,26/05/2020,1.5905E+12,26/05/2020,1.5905E+12,,
5ab54f75fa3b4e000172c7a6,1818214,31,M,scaleresp,40,2,2,2,2,2,11,0,1455,2590,61,,747889,0.0-188.0,html-slider-response,188,"<p style=font-size:16px; text-align:center;"">  How responsible is Player 18 for the outcome ? </p>""",,4,Player 37,Player 18,26/05/2020,1.5905E+12,26/05/2020,1.5905E+12,,
5d4755febdd31c0019bb78e3,8551490,25,M,scaleresp,37,1,2,1,4,10,15,0,1155,986.6,56,,962149,0.0-390.0,html-slider-response,390,"<p style=font-size:16px; text-align:center;"">  How responsible is Player 82 for the outcome ? </p>""",,4,Player 82,Player 82,26/05/2020,1.5905E+12,26/05/2020,1.5905E+12,,
5d4a0c84029c3000010a8718,7488572,20,M,scaleresp,25,1,1,1,2,13,20,0,658,1732.065,54,,626050,0.0-123.0,html-slider-response,123,"<p style=font-size:16px; text-align:center;"">  How responsible is Player 20 for the outcome ? </p>""",,3,Player 20,Player 20,26/05/2020,1.5905E+12,26/05/2020,1.5905E+12,,
5ab54f75fa3b4e000172c7a6,1818214,31,M,scaleresp,20,2,1,2,2,12,20,1,1352,4096,54,,762116,0.0-193.0,html-slider-response,193,"<p style=font-size:16px; text-align:center;""> &nbsp &nbsp &nbsp How responsible are YOU for the outcome ?  &nbsp &nbsp </p>""",,2,You,Player 06,26/05/2020,1.5905E+12,26/05/2020,1.5905E+12,,
5d4755febdd31c0019bb78e3,8551490,25,M,scaleresp,12,2,1,2,4,2,9,1,776,1416.3,64,,972966,0.0-395.0,html-slider-response,395,"<p style=font-size:16px; text-align:center;"">  How responsible is Player 16 for the outcome ? </p>""",,1,Player 50,Player 16,26/05/2020,1.5905E+12,26/05/2020,1.5905E+12,,
5d4a0c84029c3000010a8718,7488572,20,M,scaleresp,7,1,2,2,2,9,11,0,765,3202.52,61,,638644,0.0-128.0,html-slider-response,128,"<p style=font-size:16px; text-align:center;"">  How responsible is Player 58 for the outcome ? </p>""",,0,Player 43,Player 58,26/05/2020,1.5905E+12,26/05/2020,1.5905E+12,,
5d4755febdd31c0019bb78e3,8551490,25,M,scaleresp,27,1,1,2,4,9,15,0,1220,1458,58,,984685,0.0-400.0,html-slider-response,400,"<p style=font-size:16px; text-align:center;"">  How responsible is Player 16 for the outcome ? </p>""",,3,Player 34,Player 16,26/05/2020,1.5905E+12,26/05/2020,1.5905E+12,,
5ab54f75fa3b4e000172c7a6,1818214,31,M,scaleresp,5,1,2,1,2,12,19,1,1322,2891,59,,775090,0.0-198.0,html-slider-response,198,"<p style=font-size:16px; text-align:center;"">  How responsible is Player 42 for the outcome ? </p>""",,0,Player 42,Player 42,26/05/2020,1.5905E+12,26/05/2020,1.5905E+12,,
5d4a0c84029c3000010a8718,7488572,20,M,scaleresp,14,2,2,1,2,1,13,0,691,1515.295,25,,649680,0.0-133.0,html-slider-response,133,"<p style=font-size:16px; text-align:center;"">  How responsible is Player 58 for the outcome ? </p>""",,1,Player 58,Player 58,26/05/2020,1.5905E+12,26/05/2020,1.5905E+12,,
5d4755febdd31c0019bb78e3,8551490,25,M,scaleresp,7,1,2,2,4,6,12,0,1082,1326.5,65,,996098,0.0-405.0,html-slider-response,405,"<p style=font-size:16px; text-align:center;"">  How responsible is Player 82 for the outcome ? </p>""",,0,Player 16,Player 82,26/05/2020,1.5905E+12,26/05/2020,1.5905E+12,,
5d4a0c84029c3000010a8718,7488572,20,M,scaleresp,38,2,2,1,2,1,3,0,672,1224.295,29,,660256,0.0-138.0,html-slider-response,138,"<p style=font-size:16px; text-align:center;"">  How responsible is Player 76 for the outcome ? </p>""",,4,Player 76,Player 76,26/05/2020,1.5905E+12,26/05/2020,1.5905E+12,,
5d4755febdd31c0019bb78e3,8551490,25,M,scaleresp,13,1,2,1,4,10,20,0,1033,1083.2,69,,1006896,0.0-410.0,html-slider-response,410,"<p style=font-size:16px; text-align:center;"">  How responsible is Player 50 for the outcome ? </p>""",,1,Player 50,Player 50,26/05/2020,1.5905E+12,26/05/2020,1.5905E+12,,
5d4755febdd31c0019bb78e3,8551490,25,M,comments,,,,,,,,,,2719,,,1009629,0.0-411.0,survey-text,411,,"{Q0"":""""}""",,,,26/05/2020,1.5905E+12,26/05/2020,1.5905E+12,,
5d4a0c84029c3000010a8718,7488572,20,M,scaleresp,32,2,2,2,2,4,16,0,1046,1541.99,59,,671540,0.0-143.0,html-slider-response,143,"<p style=font-size:16px; text-align:center;"">  How responsible is Player 43 for the outcome ? </p>""",,3,Player 20,Player 43,26/05/2020,1.5905E+12,26/05/2020,1.5905E+12,,
5d4a0c84029c3000010a8718,7488572,20,M,scaleresp,15,1,2,2,2,18,19,0,848,1600.655,57,,682509,0.0-148.0,html-slider-response,148,"<p style=font-size:16px; text-align:center;"">  How responsible is Player 20 for the outcome ? </p>""",,1,Player 58,Player 20,26/05/2020,1.5905E+12,26/05/2020,1.5905E+12,,
5d4a0c84029c3000010a8718,7488572,20,M,scaleresp,24,2,2,2,2,5,14,0,1174,1808.5,43,,694438,0.0-153.0,html-slider-response,153,"<p style=font-size:16px; text-align:center;""> &nbsp &nbsp &nbsp How responsible are YOU for the outcome ?  &nbsp &nbsp </p>""",,2,You,Player 76,26/05/2020,1.5905E+12,26/05/2020,1.5905E+12,,
5d4a0c84029c3000010a8718,7488572,20,M,scaleresp,40,2,2,2,2,12,13,0,1186,1708.395,41,,706294,0.0-158.0,html-slider-response,158,"<p style=font-size:16px; text-align:center;"">  How responsible is Player 20 for the outcome ? </p>""",,4,Player 76,Player 20,26/05/2020,1.5905E+12,26/05/2020,1.5905E+12,,
5d4a0c84029c3000010a8718,7488572,20,M,scaleresp,37,1,2,1,2,10,17,0,1200,1606.305,32,,717978,0.0-163.0,html-slider-response,163,"<p style=font-size:16px; text-align:center;"">  How responsible is Player 76 for the outcome ? </p>""",,4,Player 76,Player 76,26/05/2020,1.5905E+12,26/05/2020,1.5905E+12,,
5d4a0c84029c3000010a8718,7488572,20,M,scaleresp,8,2,2,2,2,13,17,0,1124,1607.01,27,,729466,0.0-168.0,html-slider-response,168,"<p style=font-size:16px; text-align:center;"">  How responsible is Player 58 for the outcome ? </p>""",,0,Player 43,Player 58,26/05/2020,1.5905E+12,26/05/2020,1.5905E+12,,
5d4a0c84029c3000010a8718,7488572,20,M,scaleresp,3,1,1,2,2,11,13,0,873,2374.925,58,,741707,0.0-173.0,html-slider-response,173,"<p style=font-size:16px; text-align:center;"">  How responsible is Player 20 for the outcome ? </p>""",,0,Player 43,Player 20,26/05/2020,1.5905E+12,26/05/2020,1.5905E+12,,
5d4a0c84029c3000010a8718,7488572,20,M,scaleresp,28,2,1,2,2,12,19,0,562,1293.505,44,,752402,0.0-178.0,html-slider-response,178,"<p style=font-size:16px; text-align:center;"">  How responsible is Player 58 for the outcome ? </p>""",,3,Player 20,Player 58,26/05/2020,1.5905E+12,26/05/2020,1.5905E+12,,
5d4a0c84029c3000010a8718,7488572,20,M,scaleresp,11,1,1,2,2,12,20,0,665,1499.285,32,,763193,0.0-183.0,html-slider-response,183,"<p style=font-size:16px; text-align:center;"">  How responsible is Player 20 for the outcome ? </p>""",,1,Player 58,Player 20,26/05/2020,1.5905E+12,26/05/2020,1.5905E+12,,
5ab54f75fa3b4e000172c7a6,1818214,31,M,scaleresp,39,1,2,2,2,3,15,1,1176,115909,58,,901131,0.0-203.0,html-slider-response,203,"<p style=font-size:16px; text-align:center;"">  How responsible is Player 18 for the outcome ? </p>""",,4,Player 37,Player 18,26/05/2020,1.5905E+12,26/05/2020,1.5905E+12,,
5d4a0c84029c3000010a8718,7488572,20,M,scaleresp,39,1,2,2,2,7,10,0,1308,2318.095,25,,775619,0.0-188.0,html-slider-response,188,"<p style=font-size:16px; text-align:center;"">  How responsible is Player 58 for the outcome ? </p>""",,4,Player 76,Player 58,26/05/2020,1.5905E+12,26/05/2020,1.5905E+12,,
5ab54f75fa3b4e000172c7a6,1818214,31,M,scaleresp,2,2,1,1,2,10,12,1,1461,2384,61,,913938,0.0-208.0,html-slider-response,208,"<p style=font-size:16px; text-align:center;"">  How responsible is Player 42 for the outcome ? </p>""",,0,Player 42,Player 42,26/05/2020,1.5905E+12,26/05/2020,1.5905E+12,,
5d4a0c84029c3000010a8718,7488572,20,M,scaleresp,6,2,2,1,2,11,16,0,1010,1563.69,5,,786820,0.0-193.0,html-slider-response,193,"<p style=font-size:16px; text-align:center;"">  How responsible is Player 43 for the outcome ? </p>""",,0,Player 43,Player 43,26/05/2020,1.5905E+12,26/05/2020,1.5905E+12,,
5ab54f75fa3b4e000172c7a6,1818214,31,M,scaleresp,38,2,2,1,3,2,20,0,1250,1980,57,,930473,0.0-214.0,html-slider-response,214,"<p style=font-size:16px; text-align:center;"">  How responsible is Player 37 for the outcome ? </p>""",,4,Player 37,Player 37,26/05/2020,1.5905E+12,26/05/2020,1.5905E+12,,
5d4a0c84029c3000010a8718,7488572,20,M,scaleresp,19,1,1,2,2,10,18,0,913,1763.505,73,,798157,0.0-198.0,html-slider-response,198,"<p style=font-size:16px; text-align:center;""> &nbsp &nbsp &nbsp How responsible are YOU for the outcome ?  &nbsp &nbsp </p>""",,2,You,Player 43,26/05/2020,1.5905E+12,26/05/2020,1.5905E+12,,
5d4a0c84029c3000010a8718,7488572,20,M,scaleresp,34,2,1,1,2,3,4,0,1043,2013.755,31,,810121,0.0-203.0,html-slider-response,203,"<p style=font-size:16px; text-align:center;"">  How responsible is Player 76 for the outcome ? </p>""",,4,Player 76,Player 76,26/05/2020,1.5905E+12,26/05/2020,1.5905E+12,,
5ab54f75fa3b4e000172c7a6,1818214,31,M,scaleresp,22,2,2,1,3,5,6,1,1260,3005,55,,943436,0.0-219.0,html-slider-response,219,"<p style=font-size:16px; text-align:center;""> &nbsp &nbsp &nbsp How responsible are YOU for the outcome ?  &nbsp &nbsp </p>""",,2,You,You,26/05/2020,1.5905E+12,26/05/2020,1.5905E+12,,
5d4a0c84029c3000010a8718,7488572,20,M,scaleresp,26,2,1,1,2,7,19,0,962,1475.22,34,,821480,0.0-208.0,html-slider-response,208,"<p style=font-size:16px; text-align:center;"">  How responsible is Player 20 for the outcome ? </p>""",,3,Player 20,Player 20,26/05/2020,1.5905E+12,26/05/2020,1.5905E+12,,
5ab54f75fa3b4e000172c7a6,1818214,31,M,scaleresp,24,2,2,2,3,10,13,1,1125,2763,54,,956353,0.0-224.0,html-slider-response,224,"<p style=font-size:16px; text-align:center;""> &nbsp &nbsp &nbsp How responsible are YOU for the outcome ?  &nbsp &nbsp </p>""",,2,You,Player 42,26/05/2020,1.5905E+12,26/05/2020,1.5905E+12,,
5d4a0c84029c3000010a8718,7488572,20,M,scaleresp,6,2,2,1,3,14,20,0,682,1590.6,2,,834896,0.0-214.0,html-slider-response,214,"<p style=font-size:16px; text-align:center;"">  How responsible is Player 43 for the outcome ? </p>""",,0,Player 43,Player 43,26/05/2020,1.5905E+12,26/05/2020,1.5905E+12,,
5ab54f75fa3b4e000172c7a6,1818214,31,M,scaleresp,13,1,2,1,3,2,10,1,1142,2950,58,,969150,0.0-229.0,html-slider-response,229,"<p style=font-size:16px; text-align:center;"">  How responsible is Player 18 for the outcome ? </p>""",,1,Player 18,Player 18,26/05/2020,1.5905E+12,26/05/2020,1.5905E+12,,
5d4a0c84029c3000010a8718,7488572,20,M,scaleresp,17,1,1,1,3,5,10,0,571,1433.74,64,,845599,0.0-219.0,html-slider-response,219,"<p style=font-size:16px; text-align:center;""> &nbsp &nbsp &nbsp How responsible are YOU for the outcome ?  &nbsp &nbsp </p>""",,2,You,You,26/05/2020,1.5905E+12,26/05/2020,1.5905E+12,,
5ab54f75fa3b4e000172c7a6,1818214,31,M,scaleresp,34,2,1,1,3,9,13,0,1235,2540,54,,981662,0.0-234.0,html-slider-response,234,"<p style=font-size:16px; text-align:center;"">  How responsible is Player 37 for the outcome ? </p>""",,4,Player 37,Player 37,26/05/2020,1.5905E+12,26/05/2020,1.5905E+12,,
5d4a0c84029c3000010a8718,7488572,20,M,scaleresp,15,1,2,2,3,1,18,0,989,1275.615,24,,856767,0.0-224.0,html-slider-response,224,"<p style=font-size:16px; text-align:center;"">  How responsible is Player 76 for the outcome ? </p>""",,1,Player 58,Player 76,26/05/2020,1.5905E+12,26/05/2020,1.5905E+12,,
5ab54f75fa3b4e000172c7a6,1818214,31,M,scaleresp,25,1,1,1,3,2,4,,,,,,992593,0.0-239.0,html-slider-response,239,"<p style=font-size:16px; text-align:center;"">  How responsible is Player 06 for the outcome ? </p>""",,3,Player 06,Player 06,26/05/2020,1.5905E+12,26/05/2020,1.5905E+12,,
5d4a0c84029c3000010a8718,7488572,20,M,scaleresp,13,1,2,1,3,8,14,0,463,1463.2,24,,867374,0.0-229.0,html-slider-response,229,"<p style=font-size:16px; text-align:center;"">  How responsible is Player 58 for the outcome ? </p>""",,1,Player 58,Player 58,26/05/2020,1.5905E+12,26/05/2020,1.5905E+12,,
5ab54f75fa3b4e000172c7a6,1818214,31,M,scaleresp,33,1,1,1,3,14,15,1,1325,2728,57,,1005418,0.0-244.0,html-slider-response,244,"<p style=font-size:16px; text-align:center;"">  How responsible is Player 37 for the outcome ? </p>""",,4,Player 37,Player 37,26/05/2020,1.5905E+12,26/05/2020,1.5905E+12,,
5d4a0c84029c3000010a8718,7488572,20,M,scaleresp,19,1,1,2,3,2,13,0,825,2235.075,68,,879355,0.0-234.0,html-slider-response,234,"<p style=font-size:16px; text-align:center;""> &nbsp &nbsp &nbsp How responsible are YOU for the outcome ?  &nbsp &nbsp </p>""",,2,You,Player 43,26/05/2020,1.5905E+12,26/05/2020,1.5905E+12,,
5ab54f75fa3b4e000172c7a6,1818214,31,M,scaleresp,35,1,1,2,3,7,10,0,1540,2258,57,,1017867,0.0-249.0,html-slider-response,249,"<p style=font-size:16px; text-align:center;"">  How responsible is Player 42 for the outcome ? </p>""",,4,Player 37,Player 42,26/05/2020,1.5905E+12,26/05/2020,1.5905E+12,,
5d4a0c84029c3000010a8718,7488572,20,M,scaleresp,39,1,2,2,3,8,9,0,1057,1512.835,42,,890674,0.0-239.0,html-slider-response,239,"<p style=font-size:16px; text-align:center;"">  How responsible is Player 58 for the outcome ? </p>""",,4,Player 76,Player 58,26/05/2020,1.5905E+12,26/05/2020,1.5905E+12,,
5ab54f75fa3b4e000172c7a6,1818214,31,M,scaleresp,23,1,2,2,3,1,15,1,1368,3084,56,,1031054,0.0-254.0,html-slider-response,254,"<p style=font-size:16px; text-align:center;""> &nbsp &nbsp &nbsp How responsible are YOU for the outcome ?  &nbsp &nbsp </p>""",,2,You,Player 42,26/05/2020,1.5905E+12,26/05/2020,1.5905E+12,,
5d4a0c84029c3000010a8718,7488572,20,M,scaleresp,3,1,1,2,3,17,20,0,1338,1928.78,39,,902453,0.0-244.0,html-slider-response,244,"<p style=font-size:16px; text-align:center;"">  How responsible is Player 76 for the outcome ? </p>""",,0,Player 43,Player 76,26/05/2020,1.5905E+12,26/05/2020,1.5905E+12,,
5d4a0c84029c3000010a8718,7488572,20,M,scaleresp,20,2,1,2,3,6,10,0,812,2212.445,68,,914350,0.0-249.0,html-slider-response,249,"<p style=font-size:16px; text-align:center;""> &nbsp &nbsp &nbsp How responsible are YOU for the outcome ?  &nbsp &nbsp </p>""",,2,You,Player 20,26/05/2020,1.5905E+12,26/05/2020,1.5905E+12,,
5ab54f75fa3b4e000172c7a6,1818214,31,M,scaleresp,14,2,2,1,3,15,19,1,1335,8067,63,,1049525,0.0-259.0,html-slider-response,259,"<p style=font-size:16px; text-align:center;"">  How responsible is Player 18 for the outcome ? </p>""",,1,Player 18,Player 18,26/05/2020,1.5905E+12,26/05/2020,1.5905E+12,,
5d4a0c84029c3000010a8718,7488572,20,M,scaleresp,24,2,2,2,3,13,19,0,1183,1759.805,57,,925959,0.0-254.0,html-slider-response,254,"<p style=font-size:16px; text-align:center;""> &nbsp &nbsp &nbsp How responsible are YOU for the outcome ?  &nbsp &nbsp </p>""",,2,You,Player 20,26/05/2020,1.5905E+12,26/05/2020,1.5905E+12,,
5ab54f75fa3b4e000172c7a6,1818214,31,M,scaleresp,39,1,2,2,3,3,16,,,,,,1060286,0.0-264.0,html-slider-response,264,"<p style=font-size:16px; text-align:center;"">  How responsible is Player 18 for the outcome ? </p>""",,4,Player 37,Player 18,26/05/2020,1.5905E+12,26/05/2020,1.5905E+12,,
5d4a0c84029c3000010a8718,7488572,20,M,scaleresp,35,1,1,2,3,6,19,0,605,1682.235,68,,937064,0.0-259.0,html-slider-response,259,"<p style=font-size:16px; text-align:center;"">  How responsible is Player 20 for the outcome ? </p>""",,4,Player 76,Player 20,26/05/2020,1.5905E+12,26/05/2020,1.5905E+12,,
5ab54f75fa3b4e000172c7a6,1818214,31,M,scaleresp,11,1,1,2,3,1,2,1,1415,2879,56,,1073410,0.0-269.0,html-slider-response,269,"<p style=font-size:16px; text-align:center;"">  How responsible is Player 37 for the outcome ? </p>""",,1,Player 18,Player 37,26/05/2020,1.5905E+12,26/05/2020,1.5905E+12,,
5d4a0c84029c3000010a8718,7488572,20,M,scaleresp,25,1,1,1,3,3,11,0,796,1876.5,64,,948326,0.0-264.0,html-slider-response,264,"<p style=font-size:16px; text-align:center;"">  How responsible is Player 20 for the outcome ? </p>""",,3,Player 20,Player 20,26/05/2020,1.5905E+12,26/05/2020,1.5905E+12,,
5ab54f75fa3b4e000172c7a6,1818214,31,M,scaleresp,27,1,1,2,3,3,12,1,1154,3305,56,,1086806,0.0-274.0,html-slider-response,274,"<p style=font-size:16px; text-align:center;"">  How responsible is Player 42 for the outcome ? </p>""",,3,Player 06,Player 42,26/05/2020,1.5905E+12,26/05/2020,1.5905E+12,,
5d4a0c84029c3000010a8718,7488572,20,M,scaleresp,18,2,1,1,3,5,17,0,617,2002.335,64,,959922,0.0-269.0,html-slider-response,269,"<p style=font-size:16px; text-align:center;""> &nbsp &nbsp &nbsp How responsible are YOU for the outcome ?  &nbsp &nbsp </p>""",,2,You,You,26/05/2020,1.5905E+12,26/05/2020,1.5905E+12,,
5ab54f75fa3b4e000172c7a6,1818214,31,M,scaleresp,20,2,1,2,3,1,20,1,1522,2717,60,,1099767,0.0-279.0,html-slider-response,279,"<p style=font-size:16px; text-align:center;""> &nbsp &nbsp &nbsp How responsible are YOU for the outcome ?  &nbsp &nbsp </p>""",,2,You,Player 42,26/05/2020,1.5905E+12,26/05/2020,1.5905E+12,,
5d4a0c84029c3000010a8718,7488572,20,M,scaleresp,37,1,2,1,3,4,8,0,873,1833.25,64,,971265,0.0-274.0,html-slider-response,274,"<p style=font-size:16px; text-align:center;"">  How responsible is Player 76 for the outcome ? </p>""",,4,Player 76,Player 76,26/05/2020,1.5905E+12,26/05/2020,1.5905E+12,,
5ab54f75fa3b4e000172c7a6,1818214,31,M,scaleresp,1,1,1,1,3,9,11,,,,,,1110554,0.0-284.0,html-slider-response,284,"<p style=font-size:16px; text-align:center;"">  How responsible is Player 42 for the outcome ? </p>""",,0,Player 42,Player 42,26/05/2020,1.5905E+12,26/05/2020,1.5905E+12,,
5d4a0c84029c3000010a8718,7488572,20,M,scaleresp,14,2,2,1,3,1,6,0,999,1679.725,42,,982918,0.0-279.0,html-slider-response,279,"<p style=font-size:16px; text-align:center;"">  How responsible is Player 58 for the outcome ? </p>""",,1,Player 58,Player 58,26/05/2020,1.5905E+12,26/05/2020,1.5905E+12,,
5ab54f75fa3b4e000172c7a6,1818214,31,M,scaleresp,28,2,1,2,3,15,16,1,820,2453,56,,1122433,0.0-289.0,html-slider-response,289,"<p style=font-size:16px; text-align:center;"">  How responsible is Player 18 for the outcome ? </p>""",,3,Player 06,Player 18,26/05/2020,1.5905E+12,26/05/2020,1.5905E+12,,
5d4a0c84029c3000010a8718,7488572,20,M,scaleresp,36,2,1,2,3,9,14,0,438,1932.07,53,,993932,0.0-284.0,html-slider-response,284,"<p style=font-size:16px; text-align:center;"">  How responsible is Player 43 for the outcome ? </p>""",,4,Player 76,Player 43,26/05/2020,1.5905E+12,26/05/2020,1.5905E+12,,
5ab54f75fa3b4e000172c7a6,1818214,31,M,scaleresp,30,2,2,1,3,5,8,,,,,,1133303,0.0-294.0,html-slider-response,294,"<p style=font-size:16px; text-align:center;"">  How responsible is Player 06 for the outcome ? </p>""",,3,Player 06,Player 06,26/05/2020,1.5905E+12,26/05/2020,1.5905E+12,,
5d4a0c84029c3000010a8718,7488572,20,M,scaleresp,21,1,2,1,3,9,20,0,772,1708.895,61,,1005410,0.0-289.0,html-slider-response,289,"<p style=font-size:16px; text-align:center;""> &nbsp &nbsp &nbsp How responsible are YOU for the outcome ?  &nbsp &nbsp </p>""",,2,You,You,26/05/2020,1.5905E+12,26/05/2020,1.5905E+12,,
5ab54f75fa3b4e000172c7a6,1818214,31,M,scaleresp,18,2,1,1,3,7,13,1,1083,4364,55,,1147789,0.0-299.0,html-slider-response,299,"<p style=font-size:16px; text-align:center;""> &nbsp &nbsp &nbsp How responsible are YOU for the outcome ?  &nbsp &nbsp </p>""",,2,You,You,26/05/2020,1.5905E+12,26/05/2020,1.5905E+12,,
5d4a0c84029c3000010a8718,7488572,20,M,scaleresp,9,1,1,1,3,11,18,0,583,1748.855,52,,1016643,0.0-294.0,html-slider-response,294,"<p style=font-size:16px; text-align:center;"">  How responsible is Player 58 for the outcome ? </p>""",,1,Player 58,Player 58,26/05/2020,1.5905E+12,26/05/2020,1.5905E+12,,
5d4a0c84029c3000010a8718,7488572,20,M,scaleresp,11,1,1,2,3,13,15,0,746,1523.165,56,,1027758,0.0-299.0,html-slider-response,299,"<p style=font-size:16px; text-align:center;"">  How responsible is Player 43 for the outcome ? </p>""",,1,Player 58,Player 43,26/05/2020,1.5905E+12,26/05/2020,1.5905E+12,,
5ab54f75fa3b4e000172c7a6,1818214,31,M,scaleresp,7,1,2,2,3,3,11,1,1377,4400,61,,1162132,0.0-304.0,html-slider-response,304,"<p style=font-size:16px; text-align:center;"">  How responsible is Player 37 for the outcome ? </p>""",,0,Player 42,Player 37,26/05/2020,1.5905E+12,26/05/2020,1.5905E+12,,
5d4a0c84029c3000010a8718,7488572,20,M,scaleresp,4,2,1,2,3,18,20,0,887,1698.485,55,,1039064,0.0-304.0,html-slider-response,304,"<p style=font-size:16px; text-align:center;"">  How responsible is Player 20 for the outcome ? </p>""",,0,Player 43,Player 20,26/05/2020,1.5905E+12,26/05/2020,1.5905E+12,,
5ab54f75fa3b4e000172c7a6,1818214,31,M,scaleresp,2,2,1,1,3,3,19,0,1576,3322,54,,1176010,0.0-309.0,html-slider-response,309,"<p style=font-size:16px; text-align:center;"">  How responsible is Player 42 for the outcome ? </p>""",,0,Player 42,Player 42,26/05/2020,1.5905E+12,26/05/2020,1.5905E+12,,
5d4a0c84029c3000010a8718,7488572,20,M,scaleresp,40,2,2,2,3,3,6,0,583,2648.465,34,,1051300,0.0-309.0,html-slider-response,309,"<p style=font-size:16px; text-align:center;"">  How responsible is Player 58 for the outcome ? </p>""",,4,Player 76,Player 58,26/05/2020,1.5905E+12,26/05/2020,1.5905E+12,,
5ab54f75fa3b4e000172c7a6,1818214,31,M,scaleresp,10,2,1,1,4,14,16,1,1094,3793,58,,1194342,0.0-315.0,html-slider-response,315,"<p style=font-size:16px; text-align:center;"">  How responsible is Player 18 for the outcome ? </p>""",,1,Player 18,Player 18,26/05/2020,1.5905E+12,26/05/2020,1.5905E+12,,
5d4a0c84029c3000010a8718,7488572,20,M,scaleresp,38,2,2,1,4,8,11,0,937,1506.8,55,,1064041,0.0-315.0,html-slider-response,315,"<p style=font-size:16px; text-align:center;"">  How responsible is Player 76 for the outcome ? </p>""",,4,Player 76,Player 76,26/05/2020,1.5905E+12,26/05/2020,1.5905E+12,,
5ab54f75fa3b4e000172c7a6,1818214,31,M,scaleresp,12,2,1,2,4,4,5,,,,,,1205404,0.0-320.0,html-slider-response,320,"<p style=font-size:16px; text-align:center;"">  How responsible is Player 06 for the outcome ? </p>""",,1,Player 18,Player 06,26/05/2020,1.5905E+12,26/05/2020,1.5905E+12,,
5d4a0c84029c3000010a8718,7488572,20,M,scaleresp,27,1,1,2,4,3,13,0,447,2177.925,56,,1075356,0.0-320.0,html-slider-response,320,"<p style=font-size:16px; text-align:center;"">  How responsible is Player 58 for the outcome ? </p>""",,3,Player 20,Player 58,26/05/2020,1.5905E+12,26/05/2020,1.5905E+12,,
5ab54f75fa3b4e000172c7a6,1818214,31,M,scaleresp,9,1,1,1,4,6,17,1,1264,3481,59,,1219000,0.0-325.0,html-slider-response,325,"<p style=font-size:16px; text-align:center;"">  How responsible is Player 18 for the outcome ? </p>""",,1,Player 18,Player 18,26/05/2020,1.5905E+12,26/05/2020,1.5905E+12,,
5d4a0c84029c3000010a8718,7488572,20,M,scaleresp,12,2,1,2,4,9,18,0,406,1899.55,20,,1086471,0.0-325.0,html-slider-response,325,"<p style=font-size:16px; text-align:center;"">  How responsible is Player 76 for the outcome ? </p>""",,1,Player 58,Player 76,26/05/2020,1.5905E+12,26/05/2020,1.5905E+12,,
5d4a0c84029c3000010a8718,7488572,20,M,scaleresp,23,1,2,2,4,5,12,0,1062,4233.665,85,,1100554,0.0-330.0,html-slider-response,330,"<p style=font-size:16px; text-align:center;""> &nbsp &nbsp &nbsp How responsible are YOU for the outcome ?  &nbsp &nbsp </p>""",,2,You,Player 58,26/05/2020,1.5905E+12,26/05/2020,1.5905E+12,,
5ab54f75fa3b4e000172c7a6,1818214,31,M,scaleresp,40,2,2,2,4,10,18,0,1109,10484,62,,1239349,0.0-330.0,html-slider-response,330,"<p style=font-size:16px; text-align:center;"">  How responsible is Player 18 for the outcome ? </p>""",,4,Player 37,Player 18,26/05/2020,1.5905E+12,26/05/2020,1.5905E+12,,
5d4a0c84029c3000010a8718,7488572,20,M,scaleresp,22,2,2,1,4,13,18,0,859,2536.07,0,,1112650,0.0-335.0,html-slider-response,335,"<p style=font-size:16px; text-align:center;""> &nbsp &nbsp &nbsp How responsible are YOU for the outcome ?  &nbsp &nbsp </p>""",,2,You,You,26/05/2020,1.5905E+12,26/05/2020,1.5905E+12,,
5ab54f75fa3b4e000172c7a6,1818214,31,M,scaleresp,26,2,1,1,4,3,7,0,1218,2483,62,,1251682,0.0-335.0,html-slider-response,335,"<p style=font-size:16px; text-align:center;"">  How responsible is Player 06 for the outcome ? </p>""",,3,Player 06,Player 06,26/05/2020,1.5905E+12,26/05/2020,1.5905E+12,,
5d4a0c84029c3000010a8718,7488572,20,M,scaleresp,10,2,1,1,4,5,6,0,732,1718.68,31,,1123864,0.0-340.0,html-slider-response,340,"<p style=font-size:16px; text-align:center;"">  How responsible is Player 58 for the outcome ? </p>""",,1,Player 58,Player 58,26/05/2020,1.5905E+12,26/05/2020,1.5905E+12,,
5ab54f75fa3b4e000172c7a6,1818214,31,M,scaleresp,32,2,2,2,4,11,17,1,1358,3584,57,,1265325,0.0-340.0,html-slider-response,340,"<p style=font-size:16px; text-align:center;"">  How responsible is Player 37 for the outcome ? </p>""",,3,Player 06,Player 37,26/05/2020,1.5905E+12,26/05/2020,1.5905E+12,,
5d4a0c84029c3000010a8718,7488572,20,M,scaleresp,28,2,1,2,4,13,14,0,912,1600.095,30,,1135070,0.0-345.0,html-slider-response,345,"<p style=font-size:16px; text-align:center;"">  How responsible is Player 43 for the outcome ? </p>""",,3,Player 20,Player 43,26/05/2020,1.5905E+12,26/05/2020,1.5905E+12,,
5ab54f75fa3b4e000172c7a6,1818214,31,M,scaleresp,17,1,1,1,4,2,9,1,660,3191,57,,1278121,0.0-345.0,html-slider-response,345,"<p style=font-size:16px; text-align:center;""> &nbsp &nbsp &nbsp How responsible are YOU for the outcome ?  &nbsp &nbsp </p>""",,2,You,You,26/05/2020,1.5905E+12,26/05/2020,1.5905E+12,,
5d4a0c84029c3000010a8718,7488572,20,M,scaleresp,29,1,2,1,4,16,18,0,446,2436.47,100,,1146498,0.0-350.0,html-slider-response,350,"<p style=font-size:16px; text-align:center;"">  How responsible is Player 20 for the outcome ? </p>""",,3,Player 20,Player 20,26/05/2020,1.5905E+12,26/05/2020,1.5905E+12,,
5d4a0c84029c3000010a8718,7488572,20,M,scaleresp,2,2,1,1,4,2,9,0,645,1772.765,26,,1157594,0.0-355.0,html-slider-response,355,"<p style=font-size:16px; text-align:center;"">  How responsible is Player 43 for the outcome ? </p>""",,0,Player 43,Player 43,26/05/2020,1.5905E+12,26/05/2020,1.5905E+12,,
5ab54f75fa3b4e000172c7a6,1818214,31,M,scaleresp,31,1,2,2,4,4,6,1,1836,2261,55,,1291031,0.0-350.0,html-slider-response,350,"<p style=font-size:16px; text-align:center;"">  How responsible is Player 18 for the outcome ? </p>""",,3,Player 06,Player 18,26/05/2020,1.5905E+12,26/05/2020,1.5905E+12,,
5d4a0c84029c3000010a8718,7488572,20,M,scaleresp,1,1,1,1,4,7,18,0,405,2212.055,20,,1168962,0.0-360.0,html-slider-response,360,"<p style=font-size:16px; text-align:center;"">  How responsible is Player 43 for the outcome ? </p>""",,0,Player 43,Player 43,26/05/2020,1.5905E+12,26/05/2020,1.5905E+12,,
5ab54f75fa3b4e000172c7a6,1818214,31,M,scaleresp,29,1,2,1,4,2,6,0,1606,3609,58,,1305222,0.0-355.0,html-slider-response,355,"<p style=font-size:16px; text-align:center;"">  How responsible is Player 06 for the outcome ? </p>""",,3,Player 06,Player 06,26/05/2020,1.5905E+12,26/05/2020,1.5905E+12,,
5d4a0c84029c3000010a8718,7488572,20,M,scaleresp,33,1,1,1,4,3,20,0,559,2819.455,16,,1181216,0.0-365.0,html-slider-response,365,"<p style=font-size:16px; text-align:center;"">  How responsible is Player 76 for the outcome ? </p>""",,4,Player 76,Player 76,26/05/2020,1.5905E+12,26/05/2020,1.5905E+12,,
5ab54f75fa3b4e000172c7a6,1818214,31,M,scaleresp,6,2,2,1,4,10,19,1,1825,3336,55,,1319077,0.0-360.0,html-slider-response,360,"<p style=font-size:16px; text-align:center;"">  How responsible is Player 42 for the outcome ? </p>""",,0,Player 42,Player 42,26/05/2020,1.5905E+12,26/05/2020,1.5905E+12,,
5d4a0c84029c3000010a8718,7488572,20,M,scaleresp,16,2,2,2,4,4,10,0,878,2565.72,100,,1193612,0.0-370.0,html-slider-response,370,"<p style=font-size:16px; text-align:center;"">  How responsible is Player 20 for the outcome ? </p>""",,1,Player 58,Player 20,26/05/2020,1.5905E+12,26/05/2020,1.5905E+12,,
5d4a0c84029c3000010a8718,7488572,20,M,scaleresp,8,2,2,2,4,5,13,0,604,2079.85,100,,1205158,0.0-375.0,html-slider-response,375,"<p style=font-size:16px; text-align:center;"">  How responsible is Player 20 for the outcome ? </p>""",,0,Player 43,Player 20,26/05/2020,1.5905E+12,26/05/2020,1.5905E+12,,
5d4a0c84029c3000010a8718,7488572,20,M,scaleresp,30,2,2,1,4,14,16,0,462,2008.44,22,,1216482,0.0-380.0,html-slider-response,380,"<p style=font-size:16px; text-align:center;"">  How responsible is Player 20 for the outcome ? </p>""",,3,Player 20,Player 20,26/05/2020,1.5905E+12,26/05/2020,1.5905E+12,,
5d4a0c84029c3000010a8718,7488572,20,M,scaleresp,26,2,1,1,4,1,5,0,439,1777.21,28,,1227306,0.0-385.0,html-slider-response,385,"<p style=font-size:16px; text-align:center;"">  How responsible is Player 20 for the outcome ? </p>""",,3,Player 20,Player 20,26/05/2020,1.5905E+12,26/05/2020,1.5905E+12,,
5d4a0c84029c3000010a8718,7488572,20,M,scaleresp,5,1,2,1,4,9,17,0,618,2187.77,53,,1238982,0.0-390.0,html-slider-response,390,"<p style=font-size:16px; text-align:center;"">  How responsible is Player 43 for the outcome ? </p>""",,0,Player 43,Player 43,26/05/2020,1.5905E+12,26/05/2020,1.5905E+12,,
5d4a0c84029c3000010a8718,7488572,20,M,scaleresp,7,1,2,2,4,2,4,0,761,1652.785,28,,1250262,0.0-395.0,html-slider-response,395,"<p style=font-size:16px; text-align:center;"">  How responsible is Player 20 for the outcome ? </p>""",,0,Player 43,Player 20,26/05/2020,1.5905E+12,26/05/2020,1.5905E+12,,
5d4a0c84029c3000010a8718,7488572,20,M,scaleresp,34,2,1,1,4,4,20,0,704,1364.825,28,,1260966,0.0-400.0,html-slider-response,400,"<p style=font-size:16px; text-align:center;"">  How responsible is Player 76 for the outcome ? </p>""",,4,Player 76,Player 76,26/05/2020,1.5905E+12,26/05/2020,1.5905E+12,,
5d4a0c84029c3000010a8718,7488572,20,M,scaleresp,31,1,2,2,4,19,20,0,461,1556.315,13,,1271848,0.0-405.0,html-slider-response,405,"<p style=font-size:16px; text-align:center;"">  How responsible is Player 58 for the outcome ? </p>""",,3,Player 20,Player 58,26/05/2020,1.5905E+12,26/05/2020,1.5905E+12,,
5d4a0c84029c3000010a8718,7488572,20,M,scaleresp,32,2,2,2,4,12,15,0,430,1875.945,28,,1282836,0.0-410.0,html-slider-response,410,"<p style=font-size:16px; text-align:center;"">  How responsible is Player 43 for the outcome ? </p>""",,3,Player 20,Player 43,26/05/2020,1.5905E+12,26/05/2020,1.5905E+12,,
5d4a0c84029c3000010a8718,7488572,20,M,comments,,,,,,,,,,6019,,,1288856,0.0-411.0,survey-text,411,,"{Q0"":""""}""",,,,26/05/2020,1.5905E+12,26/05/2020,1.5905E+12,,
5ab54f75fa3b4e000172c7a6,1818214,31,M,scaleresp,36,2,1,2,4,12,13,1,1572,203921,58,,1533617,0.0-365.0,html-slider-response,365,"<p style=font-size:16px; text-align:center;"">  How responsible is Player 18 for the outcome ? </p>""",,4,Player 37,Player 18,26/05/2020,1.5905E+12,26/05/2020,1.5905E+12,,
5ab54f75fa3b4e000172c7a6,1818214,31,M,scaleresp,19,1,1,2,4,6,15,0,1352,3092,60,,1546658,0.0-370.0,html-slider-response,370,"<p style=font-size:16px; text-align:center;""> &nbsp &nbsp &nbsp How responsible are YOU for the outcome ?  &nbsp &nbsp </p>""",,2,You,Player 06,26/05/2020,1.5905E+12,26/05/2020,1.5905E+12,,
5ab54f75fa3b4e000172c7a6,1818214,31,M,scaleresp,8,2,2,2,4,7,11,1,1772,58363,56,,1615688,0.0-375.0,html-slider-response,375,"<p style=font-size:16px; text-align:center;"">  How responsible is Player 18 for the outcome ? </p>""",,0,Player 42,Player 18,26/05/2020,1.5905E+12,26/05/2020,1.5905E+12,,
5ab54f75fa3b4e000172c7a6,1818214,31,M,scaleresp,5,1,2,1,4,4,11,0,1305,2393,55,,1628428,0.0-380.0,html-slider-response,380,"<p style=font-size:16px; text-align:center;"">  How responsible is Player 42 for the outcome ? </p>""",,0,Player 42,Player 42,26/05/2020,1.5905E+12,26/05/2020,1.5905E+12,,
5ab54f75fa3b4e000172c7a6,1818214,31,M,scaleresp,16,2,2,2,4,6,20,1,1101,1950,61,,1640256,0.0-385.0,html-slider-response,385,"<p style=font-size:16px; text-align:center;"">  How responsible is Player 37 for the outcome ? </p>""",,1,Player 18,Player 37,26/05/2020,1.5905E+12,26/05/2020,1.5905E+12,,
5ab54f75fa3b4e000172c7a6,1818214,31,M,scaleresp,37,1,2,1,4,9,15,1,1118,2519,58,,1652636,0.0-390.0,html-slider-response,390,"<p style=font-size:16px; text-align:center;"">  How responsible is Player 37 for the outcome ? </p>""",,4,Player 37,Player 37,26/05/2020,1.5905E+12,26/05/2020,1.5905E+12,,
5ab54f75fa3b4e000172c7a6,1818214,31,M,scaleresp,3,1,1,2,4,2,8,0,1335,2549,63,,1665149,0.0-395.0,html-slider-response,395,"<p style=font-size:16px; text-align:center;"">  How responsible is Player 18 for the outcome ? </p>""",,0,Player 42,Player 18,26/05/2020,1.5905E+12,26/05/2020,1.5905E+12,,
5ab54f75fa3b4e000172c7a6,1818214,31,M,scaleresp,4,2,1,2,4,3,14,0,1173,1823,64,,1677045,0.0-400.0,html-slider-response,400,"<p style=font-size:16px; text-align:center;"">  How responsible is Player 18 for the outcome ? </p>""",,0,Player 42,Player 18,26/05/2020,1.5905E+12,26/05/2020,1.5905E+12,,
5ab54f75fa3b4e000172c7a6,1818214,31,M,scaleresp,21,1,2,1,4,8,15,1,1968,1822,59,,1689552,0.0-405.0,html-slider-response,405,"<p style=font-size:16px; text-align:center;""> &nbsp &nbsp &nbsp How responsible are YOU for the outcome ?  &nbsp &nbsp </p>""",,2,You,You,26/05/2020,1.5905E+12,26/05/2020,1.5905E+12,,
5ab54f75fa3b4e000172c7a6,1818214,31,M,scaleresp,15,1,2,2,4,11,19,,,,,,1700526,0.0-410.0,html-slider-response,410,"<p style=font-size:16px; text-align:center;"">  How responsible is Player 37 for the outcome ? </p>""",,1,Player 18,Player 37,26/05/2020,1.5905E+12,26/05/2020,1.5905E+12,,
5ab54f75fa3b4e000172c7a6,1818214,31,M,comments,,,,,,,,,,3865,,,1704413,0.0-411.0,survey-text,411,,"{Q0"":""no""}""",,,,26/05/2020,1.5905E+12,26/05/2020,1.5905E+12,,
5e8f41d1d73dcd0575655850,6378417,,,surveyid,,,,,,,,,,2724,,,11988,0.0-3.0,survey-text,3,,"{Q0"":""5e8f41d1d73dcd0575655850""}""",,,,26/05/2020,1.5905E+12,26/05/2020,1.5905E+12,,
5e8f41d1d73dcd0575655850,6378417,18,M,survey,,,,,,,,,,5923,,,17916,0.0-4.0,survey-text,4,,"{Q0"":""18""","Q1:""M""}""",,,,26/05/2020,1.5905E+12,26/05/2020,1.5905E+12,
5e8f41d1d73dcd0575655850,6378417,18,M,scaleresp,9,1,1,1,1,14,15,,,,,,61926,0.0-12.0,html-slider-response,12,"<p style=font-size:16px; text-align:center;"">  How responsible is Player 07 for the outcome ? </p>""",,1,Player 07,Player 07,26/05/2020,1.5905E+12,26/05/2020,1.5905E+12,,
5e8f41d1d73dcd0575655850,6378417,18,M,scaleresp,16,2,2,2,1,3,17,0,792,2716.7,65,,73973,0.0-17.0,html-slider-response,17,"<p style=font-size:16px; text-align:center;"">  How responsible is Player 41 for the outcome ? </p>""",,1,Player 07,Player 41,26/05/2020,1.5905E+12,26/05/2020,1.5905E+12,,
5e8f41d1d73dcd0575655850,6378417,18,M,scaleresp,8,2,2,2,1,13,14,1,892,2107.845,34,,85763,0.0-22.0,html-slider-response,22,"<p style=font-size:16px; text-align:center;"">  How responsible is Player 07 for the outcome ? </p>""",,0,Player 41,Player 07,26/05/2020,1.5905E+12,26/05/2020,1.5905E+12,,
5e8f41d1d73dcd0575655850,6378417,18,M,scaleresp,5,1,2,1,1,13,16,1,1059,1625.31,59,,97083,0.0-27.0,html-slider-response,27,"<p style=font-size:16px; text-align:center;"">  How responsible is Player 41 for the outcome ? </p>""",,0,Player 41,Player 41,26/05/2020,1.5905E+12,26/05/2020,1.5905E+12,,
5eb1d0492f4568306b0365c7,8678581,,,surveyid,,,,,,,,,,4024,,,24315,0.0-3.0,survey-text,3,,"{Q0"":""5eb1d0492f4568306b0365c7""}""",,,,26/05/2020,1.5905E+12,26/05/2020,1.5905E+12,,
5e8f41d1d73dcd0575655850,6378417,18,M,scaleresp,29,1,2,1,1,8,19,0,873,1826.865,40,,108563,0.0-32.0,html-slider-response,32,"<p style=font-size:16px; text-align:center;"">  How responsible is Player 53 for the outcome ? </p>""",,3,Player 53,Player 53,26/05/2020,1.5905E+12,26/05/2020,1.5905E+12,,
5dc55a3add2b773de8fd2ef7,2698533,,,surveyid,,,,,,,,,,25535,,,49651,0.0-3.0,survey-text,3,,"{Q0"":""5dc55a3add2b773de8fd2ef7""}""",,,,26/05/2020,1.5905E+12,26/05/2020,1.5905E+12,,
5dc55a3add2b773de8fd2ef7,2698533,21,m,survey,,,,,,,,,,7364,,,57018,0.0-4.0,survey-text,4,,"{Q0"":""21""","Q1:""m""}""",,,,26/05/2020,1.5905E+12,26/05/2020,1.5905E+12,
5e8f41d1d73dcd0575655850,6378417,18,M,scaleresp,36,2,1,2,1,7,11,1,805,1788.935,56,,119819,0.0-37.0,html-slider-response,37,"<p style=font-size:16px; text-align:center;"">  How responsible is Player 41 for the outcome ? </p>""",,4,Player 62,Player 41,26/05/2020,1.5905E+12,26/05/2020,1.5905E+12,,
5eb1d0492f4568306b0365c7,8678581,21,M,survey,,,,,,,,,,23759,,,48078,0.0-4.0,survey-text,4,,"{Q0"":""21""","Q1:""M""}""",,,,26/05/2020,1.5905E+12,26/05/2020,1.5905E+12,
5e8f41d1d73dcd0575655850,6378417,18,M,scaleresp,19,1,1,2,1,5,17,0,879,1442.245,45,,130970,0.0-42.0,html-slider-response,42,"<p style=font-size:16px; text-align:center;""> &nbsp &nbsp &nbsp How responsible are YOU for the outcome ?  &nbsp &nbsp </p>""",,2,You,Player 62,26/05/2020,1.5905E+12,26/05/2020,1.5905E+12,,
5e8f41d1d73dcd0575655850,6378417,18,M,scaleresp,23,1,2,2,1,3,18,1,737,2217.365,54,,142586,0.0-47.0,html-slider-response,47,"<p style=font-size:16px; text-align:center;""> &nbsp &nbsp &nbsp How responsible are YOU for the outcome ?  &nbsp &nbsp </p>""",,2,You,Player 07,26/05/2020,1.5905E+12,26/05/2020,1.5905E+12,,
5e8f41d1d73dcd0575655850,6378417,18,M,scaleresp,6,2,2,1,1,9,16,0,927,1675.04,52,,154090,0.0-52.0,html-slider-response,52,"<p style=font-size:16px; text-align:center;"">  How responsible is Player 41 for the outcome ? </p>""",,0,Player 41,Player 41,26/05/2020,1.5905E+12,26/05/2020,1.5905E+12,,
5d89c5bd2cbec60017e976f3,2866544,,,surveyid,,,,,,,,,,56226,,,93772,0.0-3.0,survey-text,3,,"{Q0"":""5d89c5bd2cbec60017e976f3""}""",,,,26/05/2020,1.5905E+12,26/05/2020,1.5905E+12,,
5d89c5bd2cbec60017e976f3,2866544,26,M,survey,,,,,,,,,,5757,,,99533,0.0-4.0,survey-text,4,,"{Q0"":""26""","Q1:""M""}""",,,,26/05/2020,1.5905E+12,26/05/2020,1.5905E+12,
5eb2d4b5444b2f06e7257f77,7957859,,,surveyid,,,,,,,,,,9645,,,32391,0.0-3.0,survey-text,3,,"{Q0"":""5eb2d4b5444b2f06e7257f77""}""",,,,26/05/2020,1.5905E+12,26/05/2020,1.5905E+12,,
5e8f41d1d73dcd0575655850,6378417,18,M,scaleresp,1,1,1,1,1,4,19,0,822,2003.33,39,,165862,0.0-57.0,html-slider-response,57,"<p style=font-size:16px; text-align:center;"">  How responsible is Player 41 for the outcome ? </p>""",,0,Player 41,Player 41,26/05/2020,1.5905E+12,26/05/2020,1.5905E+12,,
5eb2d4b5444b2f06e7257f77,7957859,22,F,survey,,,,,,,,,,6179,,,38574,0.0-4.0,survey-text,4,,"{Q0"":""22""","Q1:""F\n""}""",,,,26/05/2020,1.5905E+12,26/05/2020,1.5905E+12,
5e934f283f920e68ab49276d,3455601,,,surveyid,,,,,,,,,,9852,,,33263,0.0-3.0,survey-text,3,,"{Q0"":""5e934f283f920e68ab49276d""}""",,,,26/05/2020,1.5905E+12,26/05/2020,1.5905E+12,,
5e934f283f920e68ab49276d,3455601,20,M,survey,,,,,,,,,,4963,,,38229,0.0-4.0,survey-text,4,,"{Q0"":""20""","Q1:""M""}""",,,,26/05/2020,1.5905E+12,26/05/2020,1.5905E+12,
5ce3d1511749aa001a72b43d,4523338,,,surveyid,,,,,,,,,,8422,,,30209,0.0-3.0,survey-text,3,,"{Q0"":""5ce3d1511749aa001a72b43d""}""",,,,26/05/2020,1.5905E+12,26/05/2020,1.5905E+12,,
5e8f41d1d73dcd0575655850,6378417,18,M,scaleresp,12,2,1,2,1,8,16,0,795,15050.915,65,,190700,0.0-62.0,html-slider-response,62,"<p style=font-size:16px; text-align:center;"">  How responsible is Player 41 for the outcome ? </p>""",,1,Player 07,Player 41,26/05/2020,1.5905E+12,26/05/2020,1.5905E+12,,
5ce3d1511749aa001a72b43d,4523338,19,M,survey,,,,,,,,,,11156,,,41369,0.0-4.0,survey-text,4,,"{Q0"":""19""","Q1:""M""}""",,,,26/05/2020,1.5905E+12,26/05/2020,1.5905E+12,
5e8f41d1d73dcd0575655850,6378417,18,M,scaleresp,18,2,1,1,1,5,18,,,,,,201525,0.0-67.0,html-slider-response,67,"<p style=font-size:16px; text-align:center;""> &nbsp &nbsp &nbsp How responsible are YOU for the outcome ?  &nbsp &nbsp </p>""",,2,You,You,26/05/2020,1.5905E+12,26/05/2020,1.5905E+12,,
5bf31a726e930b00019a5d49,4381051,,,surveyid,,,,,,,,,,20376,,,39650,0.0-3.0,survey-text,3,,"{Q0"":""5bf31a726e930b00019a5d49""}""",,,,26/05/2020,1.5905E+12,26/05/2020,1.5905E+12,,
5bf31a726e930b00019a5d49,4381051,20,M,survey,,,,,,,,,,5382,,,45035,0.0-4.0,survey-text,4,,"{Q0"":""20""","Q1:""M""}""",,,,26/05/2020,1.5905E+12,26/05/2020,1.5905E+12,
5e8f41d1d73dcd0575655850,6378417,18,M,scaleresp,33,1,1,1,1,3,9,0,836,1320.88,54,,212353,0.0-72.0,html-slider-response,72,"<p style=font-size:16px; text-align:center;"">  How responsible is Player 62 for the outcome ? </p>""",,4,Player 62,Player 62,26/05/2020,1.5905E+12,26/05/2020,1.5905E+12,,
5e8f41d1d73dcd0575655850,6378417,18,M,scaleresp,38,2,2,1,1,4,11,0,814,1830.655,44,,223633,0.0-77.0,html-slider-response,77,"<p style=font-size:16px; text-align:center;"">  How responsible is Player 62 for the outcome ? </p>""",,4,Player 62,Player 62,26/05/2020,1.5905E+12,26/05/2020,1.5905E+12,,
5e8f41d1d73dcd0575655850,6378417,18,M,scaleresp,15,1,2,2,1,10,15,,,,,,234173,0.0-82.0,html-slider-response,82,"<p style=font-size:16px; text-align:center;"">  How responsible is Player 53 for the outcome ? </p>""",,1,Player 07,Player 53,26/05/2020,1.5905E+12,26/05/2020,1.5905E+12,,
5e8f41d1d73dcd0575655850,6378417,18,M,scaleresp,4,2,1,2,1,4,9,1,863,2922.605,44,,246859,0.0-87.0,html-slider-response,87,"<p style=font-size:16px; text-align:center;"">  How responsible is Player 07 for the outcome ? </p>""",,0,Player 41,Player 07,26/05/2020,1.5905E+12,26/05/2020,1.5905E+12,,
5eba6e673468ad1bb8ca4547,8391188,,,surveyid,,,,,,,,,,34663,,,164610,0.0-3.0,survey-text,3,,"{Q0"":""5eba6e673468ad1bb8ca4547""}""",,,,26/05/2020,1.5905E+12,26/05/2020,1.5905E+12,,
5c1bab0a70d93a00011ed9f0,2111026,,,surveyid,,,,,,,,,,7031,,,22985,0.0-3.0,survey-text,3,,"{Q0"":""5c1bab0a70d93a00011ed9f0""}""",,,,26/05/2020,1.5905E+12,26/05/2020,1.5905E+12,,
5c1bab0a70d93a00011ed9f0,2111026,24,F,survey,,,,,,,,,,5546,,,28544,0.0-4.0,survey-text,4,,"{Q0"":""24""","Q1:""F""}""",,,,26/05/2020,1.5905E+12,26/05/2020,1.5905E+12,
5e8f41d1d73dcd0575655850,6378417,18,M,scaleresp,24,2,2,2,1,1,15,0,721,3804.315,36,,260374,0.0-92.0,html-slider-response,92,"<p style=font-size:16px; text-align:center;""> &nbsp &nbsp &nbsp How responsible are YOU for the outcome ?  &nbsp &nbsp </p>""",,2,You,Player 41,26/05/2020,1.5905E+12,26/05/2020,1.5905E+12,,
5eba6e673468ad1bb8ca4547,8391188,29,F,survey,,,,,,,,,,16345,,,180959,0.0-4.0,survey-text,4,,"{Q0"":""29""","Q1:""F""}""",,,,26/05/2020,1.5905E+12,26/05/2020,1.5905E+12,
5eb1d0492f4568306b0365c7,8678581,21,M,scaleresp,2,2,1,1,1,2,19,,,,,,192027,0.0-12.0,html-slider-response,12,"<p style=font-size:16px; text-align:center;"">  How responsible is Player 70 for the outcome ? </p>""",,0,Player 70,Player 70,26/05/2020,1.5905E+12,26/05/2020,1.5905E+12,,
5dc55a3add2b773de8fd2ef7,2698533,21,m,scaleresp,12,2,1,2,1,4,10,0,1653,5308,73,,209639,0.0-12.0,html-slider-response,12,"<p style=font-size:16px; text-align:center;"">  How responsible is Player 63 for the outcome ? </p>""",,1,Player 41,Player 63,26/05/2020,1.5905E+12,26/05/2020,1.5905E+12,,
5bf31a726e930b00019a5d49,4381051,20,M,scaleresp,31,1,2,2,1,7,13,1,1775,3341.08,70,,108707,0.0-12.0,html-slider-response,12,"<p style=font-size:16px; text-align:center;"">  How responsible is Player 37 for the outcome ? </p>""",,3,Player 14,Player 37,26/05/2020,1.5905E+12,26/05/2020,1.5905E+12,,
5ce3d1511749aa001a72b43d,4523338,19,M,scaleresp,12,2,1,2,1,9,18,1,1973,4415.145,27,,119025,0.0-12.0,html-slider-response,12,"<p style=font-size:16px; text-align:center;"">  How responsible is Player 54 for the outcome ? </p>""",,1,Player 32,Player 54,26/05/2020,1.5905E+12,26/05/2020,1.5905E+12,,
5dc55a3add2b773de8fd2ef7,2698533,21,m,scaleresp,30,2,2,1,1,11,16,,,,,,220241,0.0-17.0,html-slider-response,17,"<p style=font-size:16px; text-align:center;"">  How responsible is Player 87 for the outcome ? </p>""",,3,Player 87,Player 87,26/05/2020,1.5905E+12,26/05/2020,1.5905E+12,,
5eb1d0492f4568306b0365c7,8678581,21,M,scaleresp,35,1,1,2,1,14,18,0,1028,5550,61,,207532,0.0-17.0,html-slider-response,17,"<p style=font-size:16px; text-align:center;"">  How responsible is Player 70 for the outcome ? </p>""",,4,Player 82,Player 70,26/05/2020,1.5905E+12,26/05/2020,1.5905E+12,,
5e8f41d1d73dcd0575655850,6378417,18,M,scaleresp,37,1,2,1,1,1,9,0,654,15411.26,41,,284996,0.0-97.0,html-slider-response,97,"<p style=font-size:16px; text-align:center;"">  How responsible is Player 62 for the outcome ? </p>""",,4,Player 62,Player 62,26/05/2020,1.5905E+12,26/05/2020,1.5905E+12,,
5bf31a726e930b00019a5d49,4381051,20,M,scaleresp,27,1,1,2,1,14,18,0,1740,2134.395,32,,121506,0.0-17.0,html-slider-response,17,"<p style=font-size:16px; text-align:center;"">  How responsible is Player 86 for the outcome ? </p>""",,3,Player 14,Player 86,26/05/2020,1.5905E+12,26/05/2020,1.5905E+12,,
5ce3d1511749aa001a72b43d,4523338,19,M,scaleresp,14,2,2,1,1,4,17,1,1972,2418.195,59,,132297,0.0-17.0,html-slider-response,17,"<p style=font-size:16px; text-align:center;"">  How responsible is Player 32 for the outcome ? </p>""",,1,Player 32,Player 32,26/05/2020,1.5905E+12,26/05/2020,1.5905E+12,,
5dc55a3add2b773de8fd2ef7,2698533,21,m,scaleresp,21,1,2,1,1,3,18,,,,,,231081,0.0-22.0,html-slider-response,22,"<p style=font-size:16px; text-align:center;""> &nbsp &nbsp &nbsp How responsible are YOU for the outcome ?  &nbsp &nbsp </p>""",,2,You,You,26/05/2020,1.5905E+12,26/05/2020,1.5905E+12,,
5d89c5bd2cbec60017e976f3,2866544,26,M,scaleresp,21,1,2,1,1,4,19,0,1991,3729.415,37,,233117,0.0-12.0,html-slider-response,12,"<p style=font-size:16px; text-align:center;""> &nbsp &nbsp &nbsp How responsible are YOU for the outcome ?  &nbsp &nbsp </p>""",,2,You,You,26/05/2020,1.5905E+12,26/05/2020,1.5905E+12,,
5e934f283f920e68ab49276d,3455601,20,M,scaleresp,15,1,2,2,1,13,20,1,1652,5341.94,64,,160004,0.0-12.0,html-slider-response,12,"<p style=font-size:16px; text-align:center;"">  How responsible is Player 02 for the outcome ? </p>""",,1,Player 53,Player 02,26/05/2020,1.5905E+12,26/05/2020,1.5905E+12,,
5eb1d0492f4568306b0365c7,8678581,21,M,scaleresp,13,1,2,1,1,6,7,0,1109,3885,91,,221399,0.0-22.0,html-slider-response,22,"<p style=font-size:16px; text-align:center;"">  How responsible is Player 46 for the outcome ? </p>""",,1,Player 46,Player 46,26/05/2020,1.5905E+12,26/05/2020,1.5905E+12,,
5bf31a726e930b00019a5d49,4381051,20,M,scaleresp,37,1,2,1,1,13,15,0,1919,1724.185,15,,134053,0.0-22.0,html-slider-response,22,"<p style=font-size:16px; text-align:center;"">  How responsible is Player 37 for the outcome ? </p>""",,4,Player 37,Player 37,26/05/2020,1.5905E+12,26/05/2020,1.5905E+12,,
5ce3d1511749aa001a72b43d,4523338,19,M,scaleresp,21,1,2,1,1,4,8,0,1278,1904.225,11,,144137,0.0-22.0,html-slider-response,22,"<p style=font-size:16px; text-align:center;""> &nbsp &nbsp &nbsp How responsible are YOU for the outcome ?  &nbsp &nbsp </p>""",,2,You,You,26/05/2020,1.5905E+12,26/05/2020,1.5905E+12,,
5dc55a3add2b773de8fd2ef7,2698533,21,m,scaleresp,11,1,1,2,1,7,13,0,1112,4409,31,,245198,0.0-27.0,html-slider-response,27,"<p style=font-size:16px; text-align:center;"">  How responsible is Player 52 for the outcome ? </p>""",,1,Player 41,Player 52,26/05/2020,1.5905E+12,26/05/2020,1.5905E+12,,
5d89c5bd2cbec60017e976f3,2866544,26,M,scaleresp,38,2,2,1,1,17,20,,,,,,243683,0.0-17.0,html-slider-response,17,"<p style=font-size:16px; text-align:center;"">  How responsible is Player 38 for the outcome ? </p>""",,4,Player 38,Player 38,26/05/2020,1.5905E+12,26/05/2020,1.5905E+12,,
5e934f283f920e68ab49276d,3455601,20,M,scaleresp,22,2,2,1,1,2,9,,,,,,170940,0.0-17.0,html-slider-response,17,"<p style=font-size:16px; text-align:center;""> &nbsp &nbsp &nbsp How responsible are YOU for the outcome ?  &nbsp &nbsp </p>""",,2,You,You,26/05/2020,1.5905E+12,26/05/2020,1.5905E+12,,
5eb1d0492f4568306b0365c7,8678581,21,M,scaleresp,38,2,2,1,1,6,10,1,1376,3081,25,,234387,0.0-27.0,html-slider-response,27,"<p style=font-size:16px; text-align:center;"">  How responsible is Player 82 for the outcome ? </p>""",,4,Player 82,Player 82,26/05/2020,1.5905E+12,26/05/2020,1.5905E+12,,
5bf31a726e930b00019a5d49,4381051,20,M,scaleresp,36,2,1,2,1,10,20,1,1673,1744.15,60,,146379,0.0-27.0,html-slider-response,27,"<p style=font-size:16px; text-align:center;"">  How responsible is Player 20 for the outcome ? </p>""",,4,Player 37,Player 20,26/05/2020,1.5905E+12,26/05/2020,1.5905E+12,,
5e8f41d1d73dcd0575655850,6378417,18,M,scaleresp,27,1,1,2,1,5,15,0,771,21701.07,36,,316004,0.0-102.0,html-slider-response,102,"<p style=font-size:16px; text-align:center;"">  How responsible is Player 62 for the outcome ? </p>""",,3,Player 53,Player 62,26/05/2020,1.5905E+12,26/05/2020,1.5905E+12,,
5ec67dab01c3da05a5a13529,9517828,,,surveyid,,,,,,,,,,4463,,,53063,0.0-3.0,survey-text,3,,"{Q0"":""5ec67dab01c3da05a5a13529""}""",,,,26/05/2020,1.5905E+12,26/05/2020,1.5905E+12,,
5e3e5424c8afcf0c0cd0a9ac,3246805,,,surveyid,,,,,,,,,,13782,,,227217,0.0-3.0,survey-text,3,,"{Q0"":""5e3e5424c8afcf0c0cd0a9ac""}""",,,,26/05/2020,1.5905E+12,26/05/2020,1.5905E+12,,
5d89c5bd2cbec60017e976f3,2866544,26,M,scaleresp,27,1,1,2,1,18,19,1,816,1901.985,80,,255142,0.0-22.0,html-slider-response,22,"<p style=font-size:16px; text-align:center;"">  How responsible is Player 75 for the outcome ? </p>""",,3,Player 24,Player 75,26/05/2020,1.5905E+12,26/05/2020,1.5905E+12,,
5e934f283f920e68ab49276d,3455601,20,M,scaleresp,25,1,1,1,1,7,19,1,1172,2845.165,62,,183578,0.0-22.0,html-slider-response,22,"<p style=font-size:16px; text-align:center;"">  How responsible is Player 02 for the outcome ? </p>""",,3,Player 02,Player 02,26/05/2020,1.5905E+12,26/05/2020,1.5905E+12,,
5dc55a3add2b773de8fd2ef7,2698533,21,m,scaleresp,39,1,2,2,1,13,18,0,1321,3137,67,,258374,0.0-32.0,html-slider-response,32,"<p style=font-size:16px; text-align:center;"">  How responsible is Player 63 for the outcome ? </p>""",,4,Player 52,Player 63,26/05/2020,1.5905E+12,26/05/2020,1.5905E+12,,
5eb1d0492f4568306b0365c7,8678581,21,M,scaleresp,28,2,1,2,1,12,13,1,850,1498,76,,245396,0.0-32.0,html-slider-response,32,"<p style=font-size:16px; text-align:center;"">  How responsible is Player 46 for the outcome ? </p>""",,3,Player 53,Player 46,26/05/2020,1.5905E+12,26/05/2020,1.5905E+12,,
5ce3d1511749aa001a72b43d,4523338,19,M,scaleresp,30,2,2,1,1,1,17,,,,,,160847,0.0-27.0,html-slider-response,27,"<p style=font-size:16px; text-align:center;"">  How responsible is Player 71 for the outcome ? </p>""",,3,Player 71,Player 71,26/05/2020,1.5905E+12,26/05/2020,1.5905E+12,,
5bf31a726e930b00019a5d49,4381051,20,M,scaleresp,6,2,2,1,1,8,10,,,,,,157240,0.0-32.0,html-slider-response,32,"<p style=font-size:16px; text-align:center;"">  How responsible is Player 86 for the outcome ? </p>""",,0,Player 86,Player 86,26/05/2020,1.5905E+12,26/05/2020,1.5905E+12,,
5ec67dab01c3da05a5a13529,9517828,23,F,survey,,,,,,,,,,7283,,,60362,0.0-4.0,survey-text,4,,"{Q0"":""23""","Q1:""F""}""",,,,26/05/2020,1.5905E+12,26/05/2020,1.5905E+12,
5e3e5424c8afcf0c0cd0a9ac,3246805,23,F,survey,,,,,,,,,,6219,,,233448,0.0-4.0,survey-text,4,,"{Q0"":""23""","Q1:""F""}""",,,,26/05/2020,1.5905E+12,26/05/2020,1.5905E+12,
5eb2d4b5444b2f06e7257f77,7957859,22,F,scaleresp,32,2,2,2,1,2,9,1,1413,2773.25,81,,193618,0.0-12.0,html-slider-response,12,"<p style=font-size:16px; text-align:center;"">  How responsible is Player 76 for the outcome ? </p>""",,3,Player 41,Player 76,26/05/2020,1.5905E+12,26/05/2020,1.5905E+12,,
5c8007ff4600c30001eb37e1,6763862,,,surveyid,,,,,,,,,,2499,,,16690,0.0-3.0,survey-text,3,,"{Q0"":""5c8007ff4600c30001eb37e1""}""",,,,26/05/2020,1.5905E+12,26/05/2020,1.5905E+12,,
5ec94a815bb88d445fa6bf50,1626587,,,surveyid,,,,,,,,,,19012,,,183012,0.0-3.0,survey-text,3,,"{Q0"":""5ec94a815bb88d445fa6bf50""}""",,,,26/05/2020,1.5905E+12,26/05/2020,1.5905E+12,,
5d89c5bd2cbec60017e976f3,2866544,26,M,scaleresp,13,1,2,1,1,8,15,0,1388,2169.305,41,,267353,0.0-27.0,html-slider-response,27,"<p style=font-size:16px; text-align:center;"">  How responsible is Player 75 for the outcome ? </p>""",,1,Player 75,Player 75,26/05/2020,1.5905E+12,26/05/2020,1.5905E+12,,
5eb40e49245b8622104636ec,8157712,,,surveyid,,,,,,,,,,15970,,,35416,0.0-3.0,survey-text,3,,"{Q0"":""5eb40e49245b8622104636ec""}""",,,,26/05/2020,1.5905E+12,26/05/2020,1.5905E+12,,
5ce3d1511749aa001a72b43d,4523338,19,M,scaleresp,25,1,1,1,1,1,2,0,1252,1309.58,60,,172001,0.0-32.0,html-slider-response,32,"<p style=font-size:16px; text-align:center;"">  How responsible is Player 71 for the outcome ? </p>""",,3,Player 71,Player 71,26/05/2020,1.5905E+12,26/05/2020,1.5905E+12,,
5e934f283f920e68ab49276d,3455601,20,M,scaleresp,27,1,1,2,1,14,18,0,807,1584.315,64,,194930,0.0-27.0,html-slider-response,27,"<p style=font-size:16px; text-align:center;"">  How responsible is Player 67 for the outcome ? </p>""",,3,Player 02,Player 67,26/05/2020,1.5905E+12,26/05/2020,1.5905E+12,,
5dc55a3add2b773de8fd2ef7,2698533,21,m,scaleresp,34,2,1,1,1,15,16,0,1177,1741,76,,269990,0.0-37.0,html-slider-response,37,"<p style=font-size:16px; text-align:center;"">  How responsible is Player 52 for the outcome ? </p>""",,4,Player 52,Player 52,26/05/2020,1.5905E+12,26/05/2020,1.5905E+12,,
5eb1d0492f4568306b0365c7,8678581,21,M,scaleresp,6,2,2,1,1,9,11,0,1093,3229,14,,258379,0.0-37.0,html-slider-response,37,"<p style=font-size:16px; text-align:center;"">  How responsible is Player 70 for the outcome ? </p>""",,0,Player 70,Player 70,26/05/2020,1.5905E+12,26/05/2020,1.5905E+12,,
5c8007ff4600c30001eb37e1,6763862,21,M,survey,,,,,,,,,,4944,,,21640,0.0-4.0,survey-text,4,,"{Q0"":""21""","Q1:""M""}""",,,,26/05/2020,1.5905E+12,26/05/2020,1.5905E+12,
5bf31a726e930b00019a5d49,4381051,20,M,scaleresp,20,2,1,2,1,5,10,1,1036,3538.56,100,,170593,0.0-37.0,html-slider-response,37,"<p style=font-size:16px; text-align:center;""> &nbsp &nbsp &nbsp How responsible are YOU for the outcome ?  &nbsp &nbsp </p>""",,2,You,Player 20,26/05/2020,1.5905E+12,26/05/2020,1.5905E+12,,
5bf1d974c795fe000143e\n,5617920,,,surveyid,,,,,,,,,,58081,,,93149,0.0-3.0,survey-text,3,,"{Q0"":""5bf1d974c795fe000143e\n""}""",,,,26/05/2020,1.5905E+12,26/05/2020,1.5905E+12,,
5eb40e49245b8622104636ec,8157712,18,M,survey,,,,,,,,,,5849,,,41268,0.0-4.0,survey-text,4,,"{Q0"":""18""","Q1:""M""}""",,,,26/05/2020,1.5905E+12,26/05/2020,1.5905E+12,
5eb2d4b5444b2f06e7257f77,7957859,22,F,scaleresp,21,1,2,1,1,13,17,0,1195,2423.645,87,,206210,0.0-17.0,html-slider-response,17,"<p style=font-size:16px; text-align:center;""> &nbsp &nbsp &nbsp How responsible are YOU for the outcome ?  &nbsp &nbsp </p>""",,2,You,You,26/05/2020,1.5905E+12,26/05/2020,1.5905E+12,,
5e8f41d1d73dcd0575655850,6378417,18,M,scaleresp,20,2,1,2,1,2,19,0,1374,11989.5,34,,338258,0.0-107.0,html-slider-response,107,"<p style=font-size:16px; text-align:center;""> &nbsp &nbsp &nbsp How responsible are YOU for the outcome ?  &nbsp &nbsp </p>""",,2,You,Player 41,26/05/2020,1.5905E+12,26/05/2020,1.5905E+12,,
5ce3d1511749aa001a72b43d,4523338,19,M,scaleresp,35,1,1,2,1,5,8,1,694,1489.54,15,,182873,0.0-37.0,html-slider-response,37,"<p style=font-size:16px; text-align:center;"">  How responsible is Player 71 for the outcome ? </p>""",,4,Player 80,Player 71,26/05/2020,1.5905E+12,26/05/2020,1.5905E+12,,
5e934f283f920e68ab49276d,3455601,20,M,scaleresp,2,2,1,1,1,10,16,1,824,2363.56,75,,207069,0.0-32.0,html-slider-response,32,"<p style=font-size:16px; text-align:center;"">  How responsible is Player 67 for the outcome ? </p>""",,0,Player 67,Player 67,26/05/2020,1.5905E+12,26/05/2020,1.5905E+12,,
5e5274dc80c3502832663ca1,3663191,,,surveyid,,,,,,,,,,5153,,,37399,0.0-3.0,survey-text,3,,"{Q0"":""5e5274dc80c3502832663ca1""}""",,,,26/05/2020,1.5905E+12,26/05/2020,1.5905E+12,,
5dc55a3add2b773de8fd2ef7,2698533,21,m,scaleresp,32,2,2,2,1,2,18,0,1153,2407,80,,282142,0.0-42.0,html-slider-response,42,"<p style=font-size:16px; text-align:center;"">  How responsible is Player 63 for the outcome ? </p>""",,3,Player 87,Player 63,26/05/2020,1.5905E+12,26/05/2020,1.5905E+12,,
5d89c5bd2cbec60017e976f3,2866544,26,M,scaleresp,33,1,1,1,1,15,16,1,1839,2855.8,39,,281037,0.0-32.0,html-slider-response,32,"<p style=font-size:16px; text-align:center;"">  How responsible is Player 38 for the outcome ? </p>""",,4,Player 38,Player 38,26/05/2020,1.5905E+12,26/05/2020,1.5905E+12,,
5a05b4e5728b1b0001ad8eee,3827758,,,surveyid,,,,,,,,,,4182,,,24645,0.0-3.0,survey-text,3,,"{Q0"":""5a05b4e5728b1b0001ad8eee""}""",,,,26/05/2020,1.5905E+12,26/05/2020,1.5905E+12,,
5eb1d0492f4568306b0365c7,8678581,21,M,scaleresp,30,2,2,1,1,3,4,0,1219,2244,74,,270827,0.0-42.0,html-slider-response,42,"<p style=font-size:16px; text-align:center;"">  How responsible is Player 53 for the outcome ? </p>""",,3,Player 53,Player 53,26/05/2020,1.5905E+12,26/05/2020,1.5905E+12,,
5bf31a726e930b00019a5d49,4381051,20,M,scaleresp,39,1,2,2,1,5,19,1,1042,1827.575,67,,182058,0.0-42.0,html-slider-response,42,"<p style=font-size:16px; text-align:center;"">  How responsible is Player 20 for the outcome ? </p>""",,4,Player 37,Player 20,26/05/2020,1.5905E+12,26/05/2020,1.5905E+12,,
5d25a0673fdfbe00013006b8,8604783,,,surveyid,,,,,,,,,,7476,,,57859,0.0-3.0,survey-text,3,,"{Q0"":""5d25a0673fdfbe00013006b8""}""",,,,26/05/2020,1.5905E+12,26/05/2020,1.5905E+12,,
5eb2d4b5444b2f06e7257f77,7957859,22,F,scaleresp,39,1,2,2,1,15,18,0,1545,2110.73,65,,218467,0.0-22.0,html-slider-response,22,"<p style=font-size:16px; text-align:center;"">  How responsible is Player 52 for the outcome ? </p>""",,4,Player 76,Player 52,26/05/2020,1.5905E+12,26/05/2020,1.5905E+12,,
5e5274dc80c3502832663ca1,3663191,28,M,survey,,,,,,,,,,8043,,,45447,0.0-4.0,survey-text,4,,"{Q0"":""28""","Q1:""M""}""",,,,26/05/2020,1.5905E+12,26/05/2020,1.5905E+12,
5ce3d1511749aa001a72b43d,4523338,19,M,scaleresp,10,2,1,1,1,5,10,1,749,1248.32,58,,193721,0.0-42.0,html-slider-response,42,"<p style=font-size:16px; text-align:center;"">  How responsible is Player 32 for the outcome ? </p>""",,1,Player 32,Player 32,26/05/2020,1.5905E+12,26/05/2020,1.5905E+12,,
5c198b6c749f990001f2491d,7388326,,,surveyid,,,,,,,,,,31654,,,56841,0.0-3.0,survey-text,3,,"{Q0"":""5c198b6c749f990001f2491d""}""",,,,26/05/2020,1.5905E+12,26/05/2020,1.5905E+12,,
5ec94a815bb88d445fa6bf50,1626587,19,F,survey,,,,,,,,,,23259,,,206277,0.0-4.0,survey-text,4,,"{Q0"":""19""","Q1:""F""}""",,,,26/05/2020,1.5905E+12,26/05/2020,1.5905E+12,
5bf1d974c795fe000143e\n,5617920,18,1,survey,,,,,,,,,,16941,,,110104,0.0-4.0,survey-text,4,,"{Q0"":""18\n\n""","Q1:""M""}""",,,,26/05/2020,1.5905E+12,26/05/2020,1.5905E+12,
5a05b4e5728b1b0001ad8eee,3827758,22,M,survey,,,,,,,,,,9382,,,34066,0.0-4.0,survey-text,4,,"{Q0"":""22""","Q1:""M""}""",,,,26/05/2020,1.5905E+12,26/05/2020,1.5905E+12,
5d25a0673fdfbe00013006b8,8604783,31,m,survey,,,,,,,,,,5500,,,63365,0.0-4.0,survey-text,4,,"{Q0"":""31""","Q1:""m""}""",,,,26/05/2020,1.5905E+12,26/05/2020,1.5905E+12,
5dc55a3add2b773de8fd2ef7,2698533,21,m,scaleresp,38,2,2,1,1,6,14,,,,,,292799,0.0-47.0,html-slider-response,47,"<p style=font-size:16px; text-align:center;"">  How responsible is Player 52 for the outcome ? </p>""",,4,Player 52,Player 52,26/05/2020,1.5905E+12,26/05/2020,1.5905E+12,,
5e8f41d1d73dcd0575655850,6378417,18,M,scaleresp,21,1,2,1,2,3,16,0,780,2982.41,30,,354653,0.0-113.0,html-slider-response,113,"<p style=font-size:16px; text-align:center;""> &nbsp &nbsp &nbsp How responsible are YOU for the outcome ?  &nbsp &nbsp </p>""",,2,You,You,26/05/2020,1.5905E+12,26/05/2020,1.5905E+12,,
5d79134a31c9b500193fddff,5603353,,,surveyid,,,,,,,,,,9317,,,39010,0.0-3.0,survey-text,3,,"{Q0"":""5d79134a31c9b500193fddff""}""",,,,26/05/2020,1.5905E+12,26/05/2020,1.5905E+12,,
5e934f283f920e68ab49276d,3455601,20,M,scaleresp,23,1,2,2,1,2,18,0,695,2897.865,25,,219464,0.0-37.0,html-slider-response,37,"<p style=font-size:16px; text-align:center;""> &nbsp &nbsp &nbsp How responsible are YOU for the outcome ?  &nbsp &nbsp </p>""",,2,You,Player 53,26/05/2020,1.5905E+12,26/05/2020,1.5905E+12,,
5d89c5bd2cbec60017e976f3,2866544,26,M,scaleresp,24,2,2,2,1,14,15,0,1657,1821.01,36,,293458,0.0-37.0,html-slider-response,37,"<p style=font-size:16px; text-align:center;""> &nbsp &nbsp &nbsp How responsible are YOU for the outcome ?  &nbsp &nbsp </p>""",,2,You,Player 75,26/05/2020,1.5905E+12,26/05/2020,1.5905E+12,,
5bf31a726e930b00019a5d49,4381051,20,M,scaleresp,16,2,2,2,1,2,5,0,1152,1589.29,73,,193718,0.0-47.0,html-slider-response,47,"<p style=font-size:16px; text-align:center;"">  How responsible is Player 86 for the outcome ? </p>""",,1,Player 20,Player 86,26/05/2020,1.5905E+12,26/05/2020,1.5905E+12,,
