prolificid,subject_id,age,gender,label,trialnum,status,outcome,getsout,bloc,img1,img2,buttonchoice,rtchoice,rt,response,key_press,time_elapsed,internal_node_id,trial_type,trial_index,stimulus,responses,date,time,datefinish,timefinish,
5be57da1f6b5dd0001170bbe,4467383,,,surveyid,,,,,,,,,,4614,,,18556,0.0-3.0,survey-text,3,,"{Q0"":""""}""",08/05/2020,1.58892E+12,08/05/2020,1.58892E+12,
5be57da1f6b5dd0001170bbe,4467383,36,F,survey,,,,,,,,,,6522,,,25084,0.0-4.0,survey-text,4,,"{Q0"":""36""","Q1:""F""}""",08/05/2020,1.58892E+12,08/05/2020,1.58892E+12
57754d57ca706f000190eaf1,8231485,,,surveyid,,,,,,,,,,26454,,,39928,0.0-3.0,survey-text,3,,"{Q0"":""57754d57ca706f000190eaf1""}""",08/05/2020,1.58892E+12,08/05/2020,1.58892E+12,
58da74c7f94de20001fbd4af,1598476,,,surveyid,,,,,,,,,,4198,,,28782,0.0-3.0,survey-text,3,,"{Q0"":""58da74c7f94de20001fbd4af""}""",08/05/2020,1.58892E+12,08/05/2020,1.58892E+12,
58da74c7f94de20001fbd4af,1598476,28,M,survey,,,,,,,,,,7286,,,36089,0.0-4.0,survey-text,4,,"{Q0"":""28""","Q1:""M""}""",08/05/2020,1.58892E+12,08/05/2020,1.58892E+12
5be57da1f6b5dd0001170bbe,4467383,36,F,scaleresp,10,1,1,2,1,2,6,0,1398,2620.905,76,,61780,0.0-12.0,html-slider-response,12,"<p style=font-size:16px; text-align:center;"">  How responsible do you feel concerning <br> the outcome ? </p>""",,08/05/2020,1.58892E+12,08/05/2020,1.58892E+12,
57754d57ca706f000190eaf1,8231485,35,M,survey,,,,,,,,,,28807,,,68766,0.0-4.0,survey-text,4,,"{Q0"":""35""","Q1:""M""}""",08/05/2020,1.58892E+12,08/05/2020,1.58892E+12
5be57da1f6b5dd0001170bbe,4467383,36,F,scaleresp,13,2,1,2,1,6,11,,,,,,72649,0.0-17.0,html-slider-response,17,"<p style=font-size:16px; text-align:center;"">  How responsible do you feel concerning <br> the outcome ? </p>""",,08/05/2020,1.58892E+12,08/05/2020,1.58892E+12,
5be57da1f6b5dd0001170bbe,4467383,36,F,scaleresp,19,2,1,1,1,10,15,,,,,,83539,0.0-22.0,html-slider-response,22,"<p style=font-size:16px; text-align:center;"">  How responsible do you feel concerning <br> the outcome ? </p>""",,08/05/2020,1.58892E+12,08/05/2020,1.58892E+12,
5cdf3e46bb4ac30001597901,5592673,,,surveyid,,,,,,,,,,77620,,,142897,0.0-3.0,survey-text,3,,"{Q0"":""5cdf3e46bb4ac30001597901""}""",08/05/2020,1.58892E+12,08/05/2020,1.58892E+12,
5cdf3e46bb4ac30001597901,5592673,23,M,survey,,,,,,,,,,10337,,,153238,0.0-4.0,survey-text,4,,"{Q0"":""23""","Q1:""M""}""",08/05/2020,1.58892E+12,08/05/2020,1.58892E+12
5be57da1f6b5dd0001170bbe,4467383,36,F,scaleresp,16,1,1,1,1,1,2,1,514,2365.185,33,,95180,0.0-27.0,html-slider-response,27,"<p style=font-size:16px; text-align:center;"">  How responsible do you feel concerning <br> the outcome ? </p>""",,08/05/2020,1.58892E+12,08/05/2020,1.58892E+12,
5be57da1f6b5dd0001170bbe,4467383,36,F,scaleresp,17,2,1,1,1,12,17,,,,,,105928,0.0-32.0,html-slider-response,32,"<p style=font-size:16px; text-align:center;"">  How responsible do you feel concerning <br> the outcome ? </p>""",,08/05/2020,1.58892E+12,08/05/2020,1.58892E+12,
5ca59f9f30710b001605b491,8120291,,,surveyid,,,,,,,,,,7424,,,19052,0.0-3.0,survey-text,3,,"{Q0"":""5ca59f9f30710b001605b491""}""",08/05/2020,1.58892E+12,08/05/2020,1.58892E+12,
5ca59f9f30710b001605b491,8120291,20,m,survey,,,,,,,,,,2765,,,21819,0.0-4.0,survey-text,4,,"{Q0"":""20""","Q1:""m""}""",08/05/2020,1.58892E+12,08/05/2020,1.58892E+12
5be57da1f6b5dd0001170bbe,4467383,36,F,scaleresp,18,1,1,1,1,1,11,0,974,1813.675,72,,117459,0.0-37.0,html-slider-response,37,"<p style=font-size:16px; text-align:center;"">  How responsible do you feel concerning <br> the outcome ? </p>""",,08/05/2020,1.58892E+12,08/05/2020,1.58892E+12,
5d8edb6a999d520017b0a66b,3441247,,,surveyid,,,,,,,,,,25086,,,41347,0.0-3.0,survey-text,3,,"{Q0"":""5d8edb6a999d520017b0a66b""}""",08/05/2020,1.58892E+12,08/05/2020,1.58892E+12,
5be42fd8d8f5470001f0d1cd,4568129,,,surveyid,,,,,,,,,,6498,,,43286,0.0-3.0,survey-text,3,,"{Q0"":""5be42fd8d8f5470001f0d1cd""}""",08/05/2020,1.58892E+12,08/05/2020,1.58892E+12,
5be57da1f6b5dd0001170bbe,4467383,36,F,scaleresp,12,1,1,2,1,3,14,0,905,1643.36,36,,128907,0.0-42.0,html-slider-response,42,"<p style=font-size:16px; text-align:center;"">  How responsible do you feel concerning <br> the outcome ? </p>""",,08/05/2020,1.58892E+12,08/05/2020,1.58892E+12,
5d8edb6a999d520017b0a66b,3441247,33,M,survey,,,,,,,,,,7202,,,48553,0.0-4.0,survey-text,4,,"{Q0"":""33""","Q1:""M""}""",08/05/2020,1.58892E+12,08/05/2020,1.58892E+12
5be42fd8d8f5470001f0d1cd,4568129,22,F,survey,,,,,,,,,,6903,,,50199,0.0-4.0,survey-text,4,,"{Q0"":""22""","Q1:""F""}""",08/05/2020,1.58892E+12,08/05/2020,1.58892E+12
5e5185f14aa7081a81ea3faf,6447883,,,surveyid,,,,,,,,,,6987,,,39755,0.0-3.0,survey-text,3,,"{Q0"":""5e5185f14aa7081a81ea3faf""}""",08/05/2020,1.58892E+12,08/05/2020,1.58892E+12,
57754d57ca706f000190eaf1,8231485,35,M,scaleresp,12,1,1,2,1,3,19,1,1698,2546.5,93,,143989,0.0-12.0,html-slider-response,12,"<p style=font-size:16px; text-align:center;"">  How responsible do you feel concerning <br> the outcome ? </p>""",,08/05/2020,1.58892E+12,08/05/2020,1.58892E+12,
5e5185f14aa7081a81ea3faf,6447883,26,F,survey,,,,,,,,,,7011,,,46775,0.0-4.0,survey-text,4,,"{Q0"":""26""","Q1:""F""}""",08/05/2020,1.58892E+12,08/05/2020,1.58892E+12
5be57da1f6b5dd0001170bbe,4467383,36,F,scaleresp,4,1,2,2,1,6,18,1,1227,1882.69,13,,140643,0.0-47.0,html-slider-response,47,"<p style=font-size:16px; text-align:center;"">  How responsible do you feel concerning <br> the outcome ? </p>""",,08/05/2020,1.58892E+12,08/05/2020,1.58892E+12,
5c4bb5a2620ba700010bf02b,1089596,,,surveyid,,,,,,,,,,17636,,,37882,0.0-3.0,survey-text,3,,"{Q0"":""5c4bb5a2620ba700010bf02b""}""",08/05/2020,1.58892E+12,08/05/2020,1.58892E+12,
5c4bb5a2620ba700010bf02b,1089596,18,M,survey,,,,,,,,,,4699,,,42585,0.0-4.0,survey-text,4,,"{Q0"":""18""","Q1:""M""}""",08/05/2020,1.58892E+12,08/05/2020,1.58892E+12
57754d57ca706f000190eaf1,8231485,35,M,scaleresp,11,2,1,2,1,1,8,0,1358,1856.4,11,,156195,0.0-17.0,html-slider-response,17,"<p style=font-size:16px; text-align:center;"">  How responsible do you feel concerning <br> the outcome ? </p>""",,08/05/2020,1.58892E+12,08/05/2020,1.58892E+12,
5be57da1f6b5dd0001170bbe,4467383,36,F,scaleresp,8,1,2,1,1,16,18,0,1365,1757.785,74,,152371,0.0-52.0,html-slider-response,52,"<p style=font-size:16px; text-align:center;"">  How responsible do you feel concerning <br> the outcome ? </p>""",,08/05/2020,1.58892E+12,08/05/2020,1.58892E+12,
57754d57ca706f000190eaf1,8231485,35,M,scaleresp,7,2,2,1,1,6,17,1,1205,1909.1,10,,168221,0.0-22.0,html-slider-response,22,"<p style=font-size:16px; text-align:center;"">  How responsible do you feel concerning <br> the outcome ? </p>""",,08/05/2020,1.58892E+12,08/05/2020,1.58892E+12,
5be57da1f6b5dd0001170bbe,4467383,36,F,scaleresp,7,2,2,1,1,3,12,1,1003,1752.97,33,,163946,0.0-57.0,html-slider-response,57,"<p style=font-size:16px; text-align:center;"">  How responsible do you feel concerning <br> the outcome ? </p>""",,08/05/2020,1.58892E+12,08/05/2020,1.58892E+12,
58da74c7f94de20001fbd4af,1598476,28,M,scaleresp,17,2,1,1,1,4,11,,,,,,153680,0.0-12.0,html-slider-response,12,"<p style=font-size:16px; text-align:center;"">  How responsible do you feel concerning <br> the outcome ? </p>""",,08/05/2020,1.58892E+12,08/05/2020,1.58892E+12,
5e90a3ac672c833b91ddcd57,8750697,,,surveyid,,,,,,,,,,22110,,,43997,0.0-3.0,survey-text,3,,"{Q0"":""5e90a3ac672c833b91ddcd57""}""",08/05/2020,1.58892E+12,08/05/2020,1.58892E+12,
5be57da1f6b5dd0001170bbe,4467383,36,F,scaleresp,6,1,2,1,1,4,18,0,1159,1799.365,30,,175882,0.0-62.0,html-slider-response,62,"<p style=font-size:16px; text-align:center;"">  How responsible do you feel concerning <br> the outcome ? </p>""",,08/05/2020,1.58892E+12,08/05/2020,1.58892E+12,
57754d57ca706f000190eaf1,8231485,35,M,scaleresp,9,2,2,1,1,7,15,1,1140,3415,76,,181832,0.0-27.0,html-slider-response,27,"<p style=font-size:16px; text-align:center;"">  How responsible do you feel concerning <br> the outcome ? </p>""",,08/05/2020,1.58892E+12,08/05/2020,1.58892E+12,
59da0b3103203500011acfec,2742857,,,surveyid,,,,,,,,,,3732,,,31125,0.0-3.0,survey-text,3,,"{Q0"":""59da0b3103203500011acfec""}""",08/05/2020,1.58892E+12,08/05/2020,1.58892E+12,
58da74c7f94de20001fbd4af,1598476,28,M,scaleresp,12,1,1,2,1,3,9,,,,,,164607,0.0-17.0,html-slider-response,17,"<p style=font-size:16px; text-align:center;"">  How responsible do you feel concerning <br> the outcome ? </p>""",,08/05/2020,1.58892E+12,08/05/2020,1.58892E+12,
5c4bb5a2620ba700010bf02b,1089596,18,M,scaleresp,8,1,2,1,1,2,8,0,1289,2756.605,22,,74725,0.0-12.0,html-slider-response,12,"<p style=font-size:16px; text-align:center;"">  How responsible do you feel concerning <br> the outcome ? </p>""",,08/05/2020,1.58892E+12,08/05/2020,1.58892E+12,
59da0b3103203500011acfec,2742857,31,F,survey,,,,,,,,,,5650,,,36780,0.0-4.0,survey-text,4,,"{Q0"":""31""","Q1:""F""}""",08/05/2020,1.58892E+12,08/05/2020,1.58892E+12
5ca59f9f30710b001605b491,8120291,20,m,scaleresp,11,2,1,2,1,12,19,1,954,2131.945,0,,91421,0.0-12.0,html-slider-response,12,"<p style=font-size:16px; text-align:center;"">  How responsible do you feel concerning <br> the outcome ? </p>""",,08/05/2020,1.58892E+12,08/05/2020,1.58892E+12,
57754d57ca706f000190eaf1,8231485,35,M,scaleresp,14,1,1,2,1,5,15,0,1116,1477.5,11,,193166,0.0-32.0,html-slider-response,32,"<p style=font-size:16px; text-align:center;"">  How responsible do you feel concerning <br> the outcome ? </p>""",,08/05/2020,1.58892E+12,08/05/2020,1.58892E+12,
5be57da1f6b5dd0001170bbe,4467383,36,F,scaleresp,2,1,2,2,1,7,9,1,1108,1998.805,31,,188002,0.0-67.0,html-slider-response,67,"<p style=font-size:16px; text-align:center;"">  How responsible do you feel concerning <br> the outcome ? </p>""",,08/05/2020,1.58892E+12,08/05/2020,1.58892E+12,
5e90a3ac672c833b91ddcd57,8750697,20,M,survey,,,,,,,,,,13542,,,57567,0.0-4.0,survey-text,4,,"{Q0"":""20""","Q1:""M""}""",08/05/2020,1.58892E+12,08/05/2020,1.58892E+12
5c4bb5a2620ba700010bf02b,1089596,18,M,scaleresp,17,2,1,1,1,7,10,1,361,1534.87,82,,85381,0.0-17.0,html-slider-response,17,"<p style=font-size:16px; text-align:center;"">  How responsible do you feel concerning <br> the outcome ? </p>""",,08/05/2020,1.58892E+12,08/05/2020,1.58892E+12,
58da74c7f94de20001fbd4af,1598476,28,M,scaleresp,2,1,2,2,1,16,17,1,1546,4837.8,49,,179743,0.0-22.0,html-slider-response,22,"<p style=font-size:16px; text-align:center;"">  How responsible do you feel concerning <br> the outcome ? </p>""",,08/05/2020,1.58892E+12,08/05/2020,1.58892E+12,
5ca59f9f30710b001605b491,8120291,20,m,scaleresp,13,2,1,2,1,4,12,1,912,1674.185,0,,102895,0.0-17.0,html-slider-response,17,"<p style=font-size:16px; text-align:center;"">  How responsible do you feel concerning <br> the outcome ? </p>""",,08/05/2020,1.58892E+12,08/05/2020,1.58892E+12,
5be57da1f6b5dd0001170bbe,4467383,36,F,scaleresp,14,1,1,2,1,4,19,0,956,1620.05,36,,199226,0.0-72.0,html-slider-response,72,"<p style=font-size:16px; text-align:center;"">  How responsible do you feel concerning <br> the outcome ? </p>""",,08/05/2020,1.58892E+12,08/05/2020,1.58892E+12,
57754d57ca706f000190eaf1,8231485,35,M,scaleresp,10,1,1,2,1,12,18,0,1056,1636.6,80,,204709,0.0-37.0,html-slider-response,37,"<p style=font-size:16px; text-align:center;"">  How responsible do you feel concerning <br> the outcome ? </p>""",,08/05/2020,1.58892E+12,08/05/2020,1.58892E+12,
5c4bb5a2620ba700010bf02b,1089596,18,M,scaleresp,1,2,2,2,1,12,20,1,414,1278.2,24,,96073,0.0-22.0,html-slider-response,22,"<p style=font-size:16px; text-align:center;"">  How responsible do you feel concerning <br> the outcome ? </p>""",,08/05/2020,1.58892E+12,08/05/2020,1.58892E+12,
5c1920c45782120001f6beff,1629236,,,surveyid,,,,,,,,,,5415,,,54301,0.0-3.0,survey-text,3,,"{Q0"":""5c1920c45782120001f6beff""}""",08/05/2020,1.58892E+12,08/05/2020,1.58892E+12,
58da74c7f94de20001fbd4af,1598476,28,M,scaleresp,15,2,1,2,1,8,9,0,940,3096.1,50,,192849,0.0-27.0,html-slider-response,27,"<p style=font-size:16px; text-align:center;"">  How responsible do you feel concerning <br> the outcome ? </p>""",,08/05/2020,1.58892E+12,08/05/2020,1.58892E+12,
5ca59f9f30710b001605b491,8120291,20,m,scaleresp,10,1,1,2,1,8,15,1,1181,1882.43,0,,114829,0.0-22.0,html-slider-response,22,"<p style=font-size:16px; text-align:center;"">  How responsible do you feel concerning <br> the outcome ? </p>""",,08/05/2020,1.58892E+12,08/05/2020,1.58892E+12,
5c1920c45782120001f6beff,1629236,33,m,survey,,,,,,,,,,5730,,,60037,0.0-4.0,survey-text,4,,"{Q0"":""33""","Q1:""male""}""",08/05/2020,1.58892E+12,08/05/2020,1.58892E+12
5be57da1f6b5dd0001170bbe,4467383,36,F,scaleresp,1,2,2,2,1,1,12,0,1221,1605.445,34,,211026,0.0-77.0,html-slider-response,77,"<p style=font-size:16px; text-align:center;"">  How responsible do you feel concerning <br> the outcome ? </p>""",,08/05/2020,1.58892E+12,08/05/2020,1.58892E+12,
57754d57ca706f000190eaf1,8231485,35,M,scaleresp,4,1,2,2,1,2,6,0,1389,2120.4,15,,216803,0.0-42.0,html-slider-response,42,"<p style=font-size:16px; text-align:center;"">  How responsible do you feel concerning <br> the outcome ? </p>""",,08/05/2020,1.58892E+12,08/05/2020,1.58892E+12,
5c4bb5a2620ba700010bf02b,1089596,18,M,scaleresp,10,1,1,2,1,7,19,1,461,1900.665,26,,107119,0.0-27.0,html-slider-response,27,"<p style=font-size:16px; text-align:center;"">  How responsible do you feel concerning <br> the outcome ? </p>""",,08/05/2020,1.58892E+12,08/05/2020,1.58892E+12,
58da74c7f94de20001fbd4af,1598476,28,M,scaleresp,7,2,2,1,1,14,15,0,1642,2224.4,50,,205417,0.0-32.0,html-slider-response,32,"<p style=font-size:16px; text-align:center;"">  How responsible do you feel concerning <br> the outcome ? </p>""",,08/05/2020,1.58892E+12,08/05/2020,1.58892E+12,
5ca59f9f30710b001605b491,8120291,20,m,scaleresp,16,1,1,1,1,5,11,1,764,2093.475,0,,126394,0.0-27.0,html-slider-response,27,"<p style=font-size:16px; text-align:center;"">  How responsible do you feel concerning <br> the outcome ? </p>""",,08/05/2020,1.58892E+12,08/05/2020,1.58892E+12,
5be57da1f6b5dd0001170bbe,4467383,36,F,scaleresp,9,2,2,1,1,8,14,0,823,1480.965,28,,222185,0.0-82.0,html-slider-response,82,"<p style=font-size:16px; text-align:center;"">  How responsible do you feel concerning <br> the outcome ? </p>""",,08/05/2020,1.58892E+12,08/05/2020,1.58892E+12,
57754d57ca706f000190eaf1,8231485,35,M,scaleresp,18,1,1,1,1,3,14,1,1070,1603.4,97,,228367,0.0-47.0,html-slider-response,47,"<p style=font-size:16px; text-align:center;"">  How responsible do you feel concerning <br> the outcome ? </p>""",,08/05/2020,1.58892E+12,08/05/2020,1.58892E+12,
5c4bb5a2620ba700010bf02b,1089596,18,M,scaleresp,11,2,1,2,1,3,4,0,1033,2075.82,73,,119108,0.0-32.0,html-slider-response,32,"<p style=font-size:16px; text-align:center;"">  How responsible do you feel concerning <br> the outcome ? </p>""",,08/05/2020,1.58892E+12,08/05/2020,1.58892E+12,
5ca59f9f30710b001605b491,8120291,20,m,scaleresp,2,1,2,2,1,15,16,0,1013,1567.83,0,,137556,0.0-32.0,html-slider-response,32,"<p style=font-size:16px; text-align:center;"">  How responsible do you feel concerning <br> the outcome ? </p>""",,08/05/2020,1.58892E+12,08/05/2020,1.58892E+12,
58da74c7f94de20001fbd4af,1598476,28,M,scaleresp,8,1,2,1,1,11,12,1,1284,1704.1,55,,217428,0.0-37.0,html-slider-response,37,"<p style=font-size:16px; text-align:center;"">  How responsible do you feel concerning <br> the outcome ? </p>""",,08/05/2020,1.58892E+12,08/05/2020,1.58892E+12,
5be57da1f6b5dd0001170bbe,4467383,36,F,scaleresp,15,2,1,2,1,8,15,1,733,1173.235,65,,232857,0.0-87.0,html-slider-response,87,"<p style=font-size:16px; text-align:center;"">  How responsible do you feel concerning <br> the outcome ? </p>""",,08/05/2020,1.58892E+12,08/05/2020,1.58892E+12,
57754d57ca706f000190eaf1,8231485,35,M,scaleresp,6,1,2,1,1,3,11,1,1441,1482.5,12,,240309,0.0-52.0,html-slider-response,52,"<p style=font-size:16px; text-align:center;"">  How responsible do you feel concerning <br> the outcome ? </p>""",,08/05/2020,1.58892E+12,08/05/2020,1.58892E+12,
5e5185f14aa7081a81ea3faf,6447883,26,F,scaleresp,20,1,2,2,1,9,10,,,,,,145037,0.0-12.0,html-slider-response,12,"<p style=font-size:16px; text-align:center;"">  How responsible do you feel concerning <br> the outcome ? </p>""",,08/05/2020,1.58892E+12,08/05/2020,1.58892E+12,
58da74c7f94de20001fbd4af,1598476,28,M,scaleresp,9,2,2,1,1,8,20,,,,,,228125,0.0-42.0,html-slider-response,42,"<p style=font-size:16px; text-align:center;"">  How responsible do you feel concerning <br> the outcome ? </p>""",,08/05/2020,1.58892E+12,08/05/2020,1.58892E+12,
5ca59f9f30710b001605b491,8120291,20,m,scaleresp,9,2,2,1,1,12,17,0,937,1790.83,0,,148818,0.0-37.0,html-slider-response,37,"<p style=font-size:16px; text-align:center;"">  How responsible do you feel concerning <br> the outcome ? </p>""",,08/05/2020,1.58892E+12,08/05/2020,1.58892E+12,
5be57da1f6b5dd0001170bbe,4467383,36,F,scaleresp,11,2,1,2,1,11,15,1,775,1465.335,59,,244009,0.0-92.0,html-slider-response,92,"<p style=font-size:16px; text-align:center;"">  How responsible do you feel concerning <br> the outcome ? </p>""",,08/05/2020,1.58892E+12,08/05/2020,1.58892E+12,
57754d57ca706f000190eaf1,8231485,35,M,scaleresp,20,1,2,2,1,14,16,0,919,1524,13,,251710,0.0-57.0,html-slider-response,57,"<p style=font-size:16px; text-align:center;"">  How responsible do you feel concerning <br> the outcome ? </p>""",,08/05/2020,1.58892E+12,08/05/2020,1.58892E+12,
5be42fd8d8f5470001f0d1cd,4568129,22,F,scaleresp,19,2,1,1,1,13,19,0,1477,4467,48,,168071,0.0-12.0,html-slider-response,12,"<p style=font-size:16px; text-align:center;"">  How responsible do you feel concerning <br> the outcome ? </p>""",,08/05/2020,1.58892E+12,08/05/2020,1.58892E+12,
5e5185f14aa7081a81ea3faf,6447883,26,F,scaleresp,14,1,1,2,1,2,3,1,1813,5729.52,31,,161573,0.0-17.0,html-slider-response,17,"<p style=font-size:16px; text-align:center;"">  How responsible do you feel concerning <br> the outcome ? </p>""",,08/05/2020,1.58892E+12,08/05/2020,1.58892E+12,
5ca59f9f30710b001605b491,8120291,20,m,scaleresp,1,2,2,2,1,16,18,0,655,1876.97,0,,160120,0.0-42.0,html-slider-response,42,"<p style=font-size:16px; text-align:center;"">  How responsible do you feel concerning <br> the outcome ? </p>""",,08/05/2020,1.58892E+12,08/05/2020,1.58892E+12,
58da74c7f94de20001fbd4af,1598476,28,M,scaleresp,1,2,2,2,1,7,15,0,737,3069.6,55,,240731,0.0-47.0,html-slider-response,47,"<p style=font-size:16px; text-align:center;"">  How responsible do you feel concerning <br> the outcome ? </p>""",,08/05/2020,1.58892E+12,08/05/2020,1.58892E+12,
5be57da1f6b5dd0001170bbe,4467383,36,F,scaleresp,5,2,2,2,1,15,19,0,905,2785.105,40,,256489,0.0-97.0,html-slider-response,97,"<p style=font-size:16px; text-align:center;"">  How responsible do you feel concerning <br> the outcome ? </p>""",,08/05/2020,1.58892E+12,08/05/2020,1.58892E+12,
57754d57ca706f000190eaf1,8231485,35,M,scaleresp,5,2,2,2,1,3,13,1,1106,1799.4,100,,263307,0.0-62.0,html-slider-response,62,"<p style=font-size:16px; text-align:center;"">  How responsible do you feel concerning <br> the outcome ? </p>""",,08/05/2020,1.58892E+12,08/05/2020,1.58892E+12,
5c4bb5a2620ba700010bf02b,1089596,18,M,scaleresp,13,2,1,2,1,1,9,1,1267,25738.52,79,,154721,0.0-37.0,html-slider-response,37,"<p style=font-size:16px; text-align:center;"">  How responsible do you feel concerning <br> the outcome ? </p>""",,08/05/2020,1.58892E+12,08/05/2020,1.58892E+12,
5be42fd8d8f5470001f0d1cd,4568129,22,F,scaleresp,9,2,2,1,1,4,20,1,1720,3756.675,27,,182223,0.0-17.0,html-slider-response,17,"<p style=font-size:16px; text-align:center;"">  How responsible do you feel concerning <br> the outcome ? </p>""",,08/05/2020,1.58892E+12,08/05/2020,1.58892E+12,
5ca59f9f30710b001605b491,8120291,20,m,scaleresp,6,1,2,1,1,1,14,1,1055,1948.615,0,,171932,0.0-47.0,html-slider-response,47,"<p style=font-size:16px; text-align:center;"">  How responsible do you feel concerning <br> the outcome ? </p>""",,08/05/2020,1.58892E+12,08/05/2020,1.58892E+12,
5e5185f14aa7081a81ea3faf,6447883,26,F,scaleresp,7,2,2,1,1,5,17,0,1047,2374.335,38,,173810,0.0-22.0,html-slider-response,22,"<p style=font-size:16px; text-align:center;"">  How responsible do you feel concerning <br> the outcome ? </p>""",,08/05/2020,1.58892E+12,08/05/2020,1.58892E+12,
58da74c7f94de20001fbd4af,1598476,28,M,scaleresp,11,2,1,2,1,6,18,1,734,1846.3,55,,252261,0.0-52.0,html-slider-response,52,"<p style=font-size:16px; text-align:center;"">  How responsible do you feel concerning <br> the outcome ? </p>""",,08/05/2020,1.58892E+12,08/05/2020,1.58892E+12,
5be57da1f6b5dd0001170bbe,4467383,36,F,scaleresp,3,2,2,2,1,6,15,1,688,1503.61,37,,267537,0.0-102.0,html-slider-response,102,"<p style=font-size:16px; text-align:center;"">  How responsible do you feel concerning <br> the outcome ? </p>""",,08/05/2020,1.58892E+12,08/05/2020,1.58892E+12,
5c1920c45782120001f6beff,1629236,33,m,scaleresp,12,1,1,2,1,17,20,0,1972,2482,67,,118730,0.0-12.0,html-slider-response,12,"<p style=font-size:16px; text-align:center;"">  How responsible do you feel concerning <br> the outcome ? </p>""",,08/05/2020,1.58892E+12,08/05/2020,1.58892E+12,
57754d57ca706f000190eaf1,8231485,35,M,scaleresp,15,2,1,2,1,11,13,0,985,2134.5,14,,275513,0.0-67.0,html-slider-response,67,"<p style=font-size:16px; text-align:center;"">  How responsible do you feel concerning <br> the outcome ? </p>""",,08/05/2020,1.58892E+12,08/05/2020,1.58892E+12,
5c4bb5a2620ba700010bf02b,1089596,18,M,scaleresp,14,1,1,2,1,1,5,1,963,2446.08,76,,167104,0.0-42.0,html-slider-response,42,"<p style=font-size:16px; text-align:center;"">  How responsible do you feel concerning <br> the outcome ? </p>""",,08/05/2020,1.58892E+12,08/05/2020,1.58892E+12,
5be42fd8d8f5470001f0d1cd,4568129,22,F,scaleresp,17,2,1,1,1,9,18,1,1450,2659.785,48,,195067,0.0-22.0,html-slider-response,22,"<p style=font-size:16px; text-align:center;"">  How responsible do you feel concerning <br> the outcome ? </p>""",,08/05/2020,1.58892E+12,08/05/2020,1.58892E+12,
58da74c7f94de20001fbd4af,1598476,28,M,scaleresp,20,1,2,2,1,4,7,1,656,1496.3,53,,263017,0.0-57.0,html-slider-response,57,"<p style=font-size:16px; text-align:center;"">  How responsible do you feel concerning <br> the outcome ? </p>""",,08/05/2020,1.58892E+12,08/05/2020,1.58892E+12,
5ca59f9f30710b001605b491,8120291,20,m,scaleresp,17,2,1,1,1,8,18,1,1064,1571.31,0,,183481,0.0-52.0,html-slider-response,52,"<p style=font-size:16px; text-align:center;"">  How responsible do you feel concerning <br> the outcome ? </p>""",,08/05/2020,1.58892E+12,08/05/2020,1.58892E+12,
5be57da1f6b5dd0001170bbe,4467383,36,F,scaleresp,20,1,2,2,1,3,10,0,603,1593.41,36,,278665,0.0-107.0,html-slider-response,107,"<p style=font-size:16px; text-align:center;"">  How responsible do you feel concerning <br> the outcome ? </p>""",,08/05/2020,1.58892E+12,08/05/2020,1.58892E+12,
5e5185f14aa7081a81ea3faf,6447883,26,F,scaleresp,15,2,1,2,1,10,14,1,1119,2619.405,57,,186534,0.0-27.0,html-slider-response,27,"<p style=font-size:16px; text-align:center;"">  How responsible do you feel concerning <br> the outcome ? </p>""",,08/05/2020,1.58892E+12,08/05/2020,1.58892E+12,
5c1920c45782120001f6beff,1629236,33,m,scaleresp,9,2,2,1,1,6,11,0,1626,2620,58,,131673,0.0-17.0,html-slider-response,17,"<p style=font-size:16px; text-align:center;"">  How responsible do you feel concerning <br> the outcome ? </p>""",,08/05/2020,1.58892E+12,08/05/2020,1.58892E+12,
57754d57ca706f000190eaf1,8231485,35,M,scaleresp,13,2,1,2,1,12,14,0,1128,1581.5,12,,287223,0.0-72.0,html-slider-response,72,"<p style=font-size:16px; text-align:center;"">  How responsible do you feel concerning <br> the outcome ? </p>""",,08/05/2020,1.58892E+12,08/05/2020,1.58892E+12,
5ca59f9f30710b001605b491,8120291,20,m,scaleresp,7,2,2,1,1,18,19,,,,,,194051,0.0-57.0,html-slider-response,57,"<p style=font-size:16px; text-align:center;"">  How responsible do you feel concerning <br> the outcome ? </p>""",,08/05/2020,1.58892E+12,08/05/2020,1.58892E+12,
58da74c7f94de20001fbd4af,1598476,28,M,scaleresp,6,1,2,1,1,13,17,1,1401,1838.9,54,,275226,0.0-62.0,html-slider-response,62,"<p style=font-size:16px; text-align:center;"">  How responsible do you feel concerning <br> the outcome ? </p>""",,08/05/2020,1.58892E+12,08/05/2020,1.58892E+12,
5e5185f14aa7081a81ea3faf,6447883,26,F,scaleresp,3,2,2,2,1,14,17,0,857,2293.55,55,,198358,0.0-32.0,html-slider-response,32,"<p style=font-size:16px; text-align:center;"">  How responsible do you feel concerning <br> the outcome ? </p>""",,08/05/2020,1.58892E+12,08/05/2020,1.58892E+12,
5c1920c45782120001f6beff,1629236,33,m,scaleresp,7,2,2,1,1,2,16,,,,,,142420,0.0-22.0,html-slider-response,22,"<p style=font-size:16px; text-align:center;"">  How responsible do you feel concerning <br> the outcome ? </p>""",,08/05/2020,1.58892E+12,08/05/2020,1.58892E+12,
5be57da1f6b5dd0001170bbe,4467383,36,F,scaleresp,15,2,1,2,2,7,13,1,852,1820.12,68,,291912,0.0-113.0,html-slider-response,113,"<p style=font-size:16px; text-align:center;"">  How responsible do you feel concerning <br> the outcome ? </p>""",,08/05/2020,1.58892E+12,08/05/2020,1.58892E+12,
57754d57ca706f000190eaf1,8231485,35,M,scaleresp,19,2,1,1,1,17,18,0,989,1493,14,,298589,0.0-77.0,html-slider-response,77,"<p style=font-size:16px; text-align:center;"">  How responsible do you feel concerning <br> the outcome ? </p>""",,08/05/2020,1.58892E+12,08/05/2020,1.58892E+12,
5be42fd8d8f5470001f0d1cd,4568129,22,F,scaleresp,11,2,1,2,1,6,14,0,1687,6470.19,49,,212141,0.0-27.0,html-slider-response,27,"<p style=font-size:16px; text-align:center;"">  How responsible do you feel concerning <br> the outcome ? </p>""",,08/05/2020,1.58892E+12,08/05/2020,1.58892E+12,
5e80c717770c43000b151225,8400571,,,surveyid,,,,,,,,,,78773,,,158721,0.0-3.0,survey-text,3,,"{Q0"":""5e80c717770c43000b151225""}""",08/05/2020,1.58892E+12,08/05/2020,1.58892E+12,
5a9844231eda4100013653a9,4761338,,,surveyid,,,,,,,,,,2325,,,16771,0.0-3.0,survey-text,3,,"{Q0"":""5a9844231eda4100013653a9""}""",08/05/2020,1.58892E+12,08/05/2020,1.58892E+12,
5ca59f9f30710b001605b491,8120291,20,m,scaleresp,5,2,2,2,1,10,11,0,855,1530.78,0,,205763,0.0-62.0,html-slider-response,62,"<p style=font-size:16px; text-align:center;"">  How responsible do you feel concerning <br> the outcome ? </p>""",,08/05/2020,1.58892E+12,08/05/2020,1.58892E+12,
58da74c7f94de20001fbd4af,1598476,28,M,scaleresp,18,1,1,1,1,4,16,1,543,2077.8,53,,286433,0.0-67.0,html-slider-response,67,"<p style=font-size:16px; text-align:center;"">  How responsible do you feel concerning <br> the outcome ? </p>""",,08/05/2020,1.58892E+12,08/05/2020,1.58892E+12,
5d8edb6a999d520017b0a66b,3441247,33,M,scaleresp,5,2,2,2,1,15,17,,,,,,220185,0.0-12.0,html-slider-response,12,"<p style=font-size:16px; text-align:center;"">  How responsible do you feel concerning <br> the outcome ? </p>""",,08/05/2020,1.58892E+12,08/05/2020,1.58892E+12,
5a9844231eda4100013653a9,4761338,29,M,survey,,,,,,,,,,5244,,,22021,0.0-4.0,survey-text,4,,"{Q0"":""29""","Q1:""M""}""",08/05/2020,1.58892E+12,08/05/2020,1.58892E+12
5e5185f14aa7081a81ea3faf,6447883,26,F,scaleresp,2,1,2,2,1,6,20,1,1039,2529.13,56,,210747,0.0-37.0,html-slider-response,37,"<p style=font-size:16px; text-align:center;"">  How responsible do you feel concerning <br> the outcome ? </p>""",,08/05/2020,1.58892E+12,08/05/2020,1.58892E+12,
5be57da1f6b5dd0001170bbe,4467383,36,F,scaleresp,8,1,2,1,2,4,16,0,493,2624.005,44,,303575,0.0-118.0,html-slider-response,118,"<p style=font-size:16px; text-align:center;"">  How responsible do you feel concerning <br> the outcome ? </p>""",,08/05/2020,1.58892E+12,08/05/2020,1.58892E+12,
5c1920c45782120001f6beff,1629236,33,m,scaleresp,16,1,1,1,1,6,19,1,902,2609,63,,154698,0.0-27.0,html-slider-response,27,"<p style=font-size:16px; text-align:center;"">  How responsible do you feel concerning <br> the outcome ? </p>""",,08/05/2020,1.58892E+12,08/05/2020,1.58892E+12,
57754d57ca706f000190eaf1,8231485,35,M,scaleresp,17,2,1,1,1,5,17,0,1087,1594.1,22,,310122,0.0-82.0,html-slider-response,82,"<p style=font-size:16px; text-align:center;"">  How responsible do you feel concerning <br> the outcome ? </p>""",,08/05/2020,1.58892E+12,08/05/2020,1.58892E+12,
59da0b3103203500011acfec,2742857,31,F,scaleresp,10,1,1,2,1,8,14,,,,,,159670,0.0-12.0,html-slider-response,12,"<p style=font-size:16px; text-align:center;"">  How responsible do you feel concerning <br> the outcome ? </p>""",,08/05/2020,1.58892E+12,08/05/2020,1.58892E+12,
5be42fd8d8f5470001f0d1cd,4568129,22,F,scaleresp,20,1,2,2,1,8,11,1,1130,4268.765,48,,226094,0.0-32.0,html-slider-response,32,"<p style=font-size:16px; text-align:center;"">  How responsible do you feel concerning <br> the outcome ? </p>""",,08/05/2020,1.58892E+12,08/05/2020,1.58892E+12,
5e80c717770c43000b151225,8400571,22,F,survey,,,,,,,,,,12715,,,171441,0.0-4.0,survey-text,4,,"{Q0"":""22""","Q1:""F\n""}""",08/05/2020,1.58892E+12,08/05/2020,1.58892E+12
5ca59f9f30710b001605b491,8120291,20,m,scaleresp,8,1,2,1,1,5,19,0,819,1289.385,0,,216479,0.0-67.0,html-slider-response,67,"<p style=font-size:16px; text-align:center;"">  How responsible do you feel concerning <br> the outcome ? </p>""",,08/05/2020,1.58892E+12,08/05/2020,1.58892E+12,
5c4bb5a2620ba700010bf02b,1089596,18,M,scaleresp,5,2,2,2,1,17,20,0,431,27206.37,75,,203701,0.0-47.0,html-slider-response,47,"<p style=font-size:16px; text-align:center;"">  How responsible do you feel concerning <br> the outcome ? </p>""",,08/05/2020,1.58892E+12,08/05/2020,1.58892E+12,
58da74c7f94de20001fbd4af,1598476,28,M,scaleresp,16,1,1,1,1,5,13,1,1171,1879.9,54,,298572,0.0-72.0,html-slider-response,72,"<p style=font-size:16px; text-align:center;"">  How responsible do you feel concerning <br> the outcome ? </p>""",,08/05/2020,1.58892E+12,08/05/2020,1.58892E+12,
59da0b3103203500011acfec,2742857,31,F,scaleresp,18,1,1,1,1,1,14,,,,,,168305,0.0-17.0,html-slider-response,17,"<p style=font-size:16px; text-align:center;"">  How responsible do you feel concerning <br> the outcome ? </p>""",,08/05/2020,1.58892E+12,08/05/2020,1.58892E+12,
5be57da1f6b5dd0001170bbe,4467383,36,F,scaleresp,14,1,1,2,2,4,10,0,809,1660.885,38,,314791,0.0-123.0,html-slider-response,123,"<p style=font-size:16px; text-align:center;"">  How responsible do you feel concerning <br> the outcome ? </p>""",,08/05/2020,1.58892E+12,08/05/2020,1.58892E+12,
5c1920c45782120001f6beff,1629236,33,m,scaleresp,14,1,1,2,1,5,9,0,1005,1629,78,,166179,0.0-32.0,html-slider-response,32,"<p style=font-size:16px; text-align:center;"">  How responsible do you feel concerning <br> the outcome ? </p>""",,08/05/2020,1.58892E+12,08/05/2020,1.58892E+12,
5e5185f14aa7081a81ea3faf,6447883,26,F,scaleresp,5,2,2,2,1,4,19,1,1134,2384.05,43,,223078,0.0-42.0,html-slider-response,42,"<p style=font-size:16px; text-align:center;"">  How responsible do you feel concerning <br> the outcome ? </p>""",,08/05/2020,1.58892E+12,08/05/2020,1.58892E+12,
57754d57ca706f000190eaf1,8231485,35,M,scaleresp,3,2,2,2,1,11,12,1,1083,1475.1,83,,321497,0.0-87.0,html-slider-response,87,"<p style=font-size:16px; text-align:center;"">  How responsible do you feel concerning <br> the outcome ? </p>""",,08/05/2020,1.58892E+12,08/05/2020,1.58892E+12,
5d8edb6a999d520017b0a66b,3441247,33,M,scaleresp,19,2,1,1,1,9,10,0,1297,4575.585,24,,235089,0.0-17.0,html-slider-response,17,"<p style=font-size:16px; text-align:center;"">  How responsible do you feel concerning <br> the outcome ? </p>""",,08/05/2020,1.58892E+12,08/05/2020,1.58892E+12,
5e2d52d7e1a0e73431c7dd06,6980585,,,surveyid,,,,,,,,,,19646,,,314939,0.0-3.0,survey-text,3,,"{Q0"":""5e2d52d7e1a0e73431c7dd06""}""",08/05/2020,1.58892E+12,08/05/2020,1.58892E+12,
5c4bb5a2620ba700010bf02b,1089596,18,M,scaleresp,6,1,2,1,1,8,12,,,,,,214605,0.0-52.0,html-slider-response,52,"<p style=font-size:16px; text-align:center;"">  How responsible do you feel concerning <br> the outcome ? </p>""",,08/05/2020,1.58892E+12,08/05/2020,1.58892E+12,
5ca59f9f30710b001605b491,8120291,20,m,scaleresp,18,1,1,1,1,4,18,0,848,1621.975,0,,227791,0.0-72.0,html-slider-response,72,"<p style=font-size:16px; text-align:center;"">  How responsible do you feel concerning <br> the outcome ? </p>""",,08/05/2020,1.58892E+12,08/05/2020,1.58892E+12,
5be42fd8d8f5470001f0d1cd,4568129,22,F,scaleresp,14,1,1,2,1,1,13,0,954,5252.725,56,,241157,0.0-37.0,html-slider-response,37,"<p style=font-size:16px; text-align:center;"">  How responsible do you feel concerning <br> the outcome ? </p>""",,08/05/2020,1.58892E+12,08/05/2020,1.58892E+12,
5ea02a1c3fb6e60009f91bb0,5549325,,,surveyid,,,,,,,,,,11670,,,76142,0.0-3.0,survey-text,3,,"{Q0"":""5ea02a1c3fb6e60009f91bb0""}""",08/05/2020,1.58892E+12,08/05/2020,1.58892E+12,
58da74c7f94de20001fbd4af,1598476,28,M,scaleresp,4,1,2,2,1,1,18,1,769,1463.8,49,,309736,0.0-77.0,html-slider-response,77,"<p style=font-size:16px; text-align:center;"">  How responsible do you feel concerning <br> the outcome ? </p>""",,08/05/2020,1.58892E+12,08/05/2020,1.58892E+12,
5be57da1f6b5dd0001170bbe,4467383,36,F,scaleresp,20,1,2,2,2,6,16,0,659,1389.175,21,,325439,0.0-128.0,html-slider-response,128,"<p style=font-size:16px; text-align:center;"">  How responsible do you feel concerning <br> the outcome ? </p>""",,08/05/2020,1.58892E+12,08/05/2020,1.58892E+12,
5e2d52d7e1a0e73431c7dd06,6980585,21,M,survey,,,,,,,,,,4721,,,319667,0.0-4.0,survey-text,4,,"{Q0"":""21""","Q1:""M""}""",08/05/2020,1.58892E+12,08/05/2020,1.58892E+12
59da0b3103203500011acfec,2742857,31,F,scaleresp,5,2,2,2,1,14,19,0,960,3519.805,66,,181471,0.0-22.0,html-slider-response,22,"<p style=font-size:16px; text-align:center;"">  How responsible do you feel concerning <br> the outcome ? </p>""",,08/05/2020,1.58892E+12,08/05/2020,1.58892E+12,
5e5185f14aa7081a81ea3faf,6447883,26,F,scaleresp,10,1,1,2,1,8,13,0,920,2127.08,54,,234952,0.0-47.0,html-slider-response,47,"<p style=font-size:16px; text-align:center;"">  How responsible do you feel concerning <br> the outcome ? </p>""",,08/05/2020,1.58892E+12,08/05/2020,1.58892E+12,
5c1920c45782120001f6beff,1629236,33,m,scaleresp,1,2,2,2,1,6,16,1,1104,2026,55,,178297,0.0-37.0,html-slider-response,37,"<p style=font-size:16px; text-align:center;"">  How responsible do you feel concerning <br> the outcome ? </p>""",,08/05/2020,1.58892E+12,08/05/2020,1.58892E+12,
57754d57ca706f000190eaf1,8231485,35,M,scaleresp,2,1,2,2,1,15,20,0,1088,2721,72,,334109,0.0-92.0,html-slider-response,92,"<p style=font-size:16px; text-align:center;"">  How responsible do you feel concerning <br> the outcome ? </p>""",,08/05/2020,1.58892E+12,08/05/2020,1.58892E+12,
5d8edb6a999d520017b0a66b,3441247,33,M,scaleresp,8,1,2,1,1,4,8,1,892,3427.995,68,,248245,0.0-22.0,html-slider-response,22,"<p style=font-size:16px; text-align:center;"">  How responsible do you feel concerning <br> the outcome ? </p>""",,08/05/2020,1.58892E+12,08/05/2020,1.58892E+12,
5c4bb5a2620ba700010bf02b,1089596,18,M,scaleresp,20,1,2,2,1,11,18,,,,,,225510,0.0-57.0,html-slider-response,57,"<p style=font-size:16px; text-align:center;"">  How responsible do you feel concerning <br> the outcome ? </p>""",,08/05/2020,1.58892E+12,08/05/2020,1.58892E+12,
5ca59f9f30710b001605b491,8120291,20,m,scaleresp,15,2,1,2,1,5,17,0,1165,1483.655,0,,238988,0.0-77.0,html-slider-response,77,"<p style=font-size:16px; text-align:center;"">  How responsible do you feel concerning <br> the outcome ? </p>""",,08/05/2020,1.58892E+12,08/05/2020,1.58892E+12,
58da74c7f94de20001fbd4af,1598476,28,M,scaleresp,13,2,1,2,1,1,9,1,774,1861,52,,321153,0.0-82.0,html-slider-response,82,"<p style=font-size:16px; text-align:center;"">  How responsible do you feel concerning <br> the outcome ? </p>""",,08/05/2020,1.58892E+12,08/05/2020,1.58892E+12,
5be57da1f6b5dd0001170bbe,4467383,36,F,scaleresp,5,2,2,2,2,11,20,1,779,1407.235,24,,336287,0.0-133.0,html-slider-response,133,"<p style=font-size:16px; text-align:center;"">  How responsible do you feel concerning <br> the outcome ? </p>""",,08/05/2020,1.58892E+12,08/05/2020,1.58892E+12,
5be42fd8d8f5470001f0d1cd,4568129,22,F,scaleresp,16,1,1,1,1,4,13,0,978,4318.225,57,,255224,0.0-42.0,html-slider-response,42,"<p style=font-size:16px; text-align:center;"">  How responsible do you feel concerning <br> the outcome ? </p>""",,08/05/2020,1.58892E+12,08/05/2020,1.58892E+12,
5c1920c45782120001f6beff,1629236,33,m,scaleresp,18,1,1,1,1,14,18,0,1009,1966,55,,189863,0.0-42.0,html-slider-response,42,"<p style=font-size:16px; text-align:center;"">  How responsible do you feel concerning <br> the outcome ? </p>""",,08/05/2020,1.58892E+12,08/05/2020,1.58892E+12,
5e5185f14aa7081a81ea3faf,6447883,26,F,scaleresp,9,2,2,1,1,2,5,0,709,2285.01,41,,246922,0.0-52.0,html-slider-response,52,"<p style=font-size:16px; text-align:center;"">  How responsible do you feel concerning <br> the outcome ? </p>""",,08/05/2020,1.58892E+12,08/05/2020,1.58892E+12,
59da0b3103203500011acfec,2742857,31,F,scaleresp,3,2,2,2,1,6,7,0,977,2680.08,64,,194111,0.0-27.0,html-slider-response,27,"<p style=font-size:16px; text-align:center;"">  How responsible do you feel concerning <br> the outcome ? </p>""",,08/05/2020,1.58892E+12,08/05/2020,1.58892E+12,
57754d57ca706f000190eaf1,8231485,35,M,scaleresp,8,1,2,1,1,2,5,0,1084,1518,8,,345378,0.0-97.0,html-slider-response,97,"<p style=font-size:16px; text-align:center;"">  How responsible do you feel concerning <br> the outcome ? </p>""",,08/05/2020,1.58892E+12,08/05/2020,1.58892E+12,
5c4bb5a2620ba700010bf02b,1089596,18,M,scaleresp,18,1,1,1,1,5,14,0,798,2047.31,82,,236946,0.0-62.0,html-slider-response,62,"<p style=font-size:16px; text-align:center;"">  How responsible do you feel concerning <br> the outcome ? </p>""",,08/05/2020,1.58892E+12,08/05/2020,1.58892E+12,
5ca59f9f30710b001605b491,8120291,20,m,scaleresp,20,1,2,2,1,5,8,1,829,2740.45,0,,251424,0.0-82.0,html-slider-response,82,"<p style=font-size:16px; text-align:center;"">  How responsible do you feel concerning <br> the outcome ? </p>""",,08/05/2020,1.58892E+12,08/05/2020,1.58892E+12,
5d8edb6a999d520017b0a66b,3441247,33,M,scaleresp,12,1,1,2,1,8,11,0,1397,5682.605,72,,264303,0.0-27.0,html-slider-response,27,"<p style=font-size:16px; text-align:center;"">  How responsible do you feel concerning <br> the outcome ? </p>""",,08/05/2020,1.58892E+12,08/05/2020,1.58892E+12,
58da74c7f94de20001fbd4af,1598476,28,M,scaleresp,19,2,1,1,1,12,14,1,804,1541.4,55,,332314,0.0-87.0,html-slider-response,87,"<p style=font-size:16px; text-align:center;"">  How responsible do you feel concerning <br> the outcome ? </p>""",,08/05/2020,1.58892E+12,08/05/2020,1.58892E+12,
5be57da1f6b5dd0001170bbe,4467383,36,F,scaleresp,18,1,1,1,2,10,11,1,580,1677.65,67,,347143,0.0-138.0,html-slider-response,138,"<p style=font-size:16px; text-align:center;"">  How responsible do you feel concerning <br> the outcome ? </p>""",,08/05/2020,1.58892E+12,08/05/2020,1.58892E+12,
5be42fd8d8f5470001f0d1cd,4568129,22,F,scaleresp,4,1,2,2,1,7,14,0,723,2618.655,31,,267476,0.0-47.0,html-slider-response,47,"<p style=font-size:16px; text-align:center;"">  How responsible do you feel concerning <br> the outcome ? </p>""",,08/05/2020,1.58892E+12,08/05/2020,1.58892E+12,
5c1920c45782120001f6beff,1629236,33,m,scaleresp,4,1,2,2,1,3,20,0,1209,1719,59,,201625,0.0-47.0,html-slider-response,47,"<p style=font-size:16px; text-align:center;"">  How responsible do you feel concerning <br> the outcome ? </p>""",,08/05/2020,1.58892E+12,08/05/2020,1.58892E+12,
57754d57ca706f000190eaf1,8231485,35,M,scaleresp,1,2,2,2,1,17,19,1,1074,1397,84,,356536,0.0-102.0,html-slider-response,102,"<p style=font-size:16px; text-align:center;"">  How responsible do you feel concerning <br> the outcome ? </p>""",,08/05/2020,1.58892E+12,08/05/2020,1.58892E+12,
5e5185f14aa7081a81ea3faf,6447883,26,F,scaleresp,16,1,1,1,1,19,20,1,769,2988.345,58,,259315,0.0-57.0,html-slider-response,57,"<p style=font-size:16px; text-align:center;"">  How responsible do you feel concerning <br> the outcome ? </p>""",,08/05/2020,1.58892E+12,08/05/2020,1.58892E+12,
59da0b3103203500011acfec,2742857,31,F,scaleresp,15,2,1,2,1,4,13,1,857,4100.08,66,,207904,0.0-32.0,html-slider-response,32,"<p style=font-size:16px; text-align:center;"">  How responsible do you feel concerning <br> the outcome ? </p>""",,08/05/2020,1.58892E+12,08/05/2020,1.58892E+12,
5d78e48415b10d00163c814e,3964510,,,surveyid,,,,,,,,,,14120,,,70865,0.0-3.0,survey-text,3,,"{Q0"":""5d78e48415b10d00163c814e""}""",08/05/2020,1.58892E+12,08/05/2020,1.58892E+12,
5c4bb5a2620ba700010bf02b,1089596,18,M,scaleresp,15,2,1,2,1,6,15,1,776,2557.58,19,,249096,0.0-67.0,html-slider-response,67,"<p style=font-size:16px; text-align:center;"">  How responsible do you feel concerning <br> the outcome ? </p>""",,08/05/2020,1.58892E+12,08/05/2020,1.58892E+12,
5ca59f9f30710b001605b491,8120291,20,m,scaleresp,4,1,2,2,1,10,20,0,872,1711,0,,262704,0.0-87.0,html-slider-response,87,"<p style=font-size:16px; text-align:center;"">  How responsible do you feel concerning <br> the outcome ? </p>""",,08/05/2020,1.58892E+12,08/05/2020,1.58892E+12,
5e2d52d7e1a0e73431c7dd06,6980585,21,M,scaleresp,14,1,1,2,1,10,17,1,1528,3568.77,65,,352868,0.0-12.0,html-slider-response,12,"<p style=font-size:16px; text-align:center;"">  How responsible do you feel concerning <br> the outcome ? </p>""",,08/05/2020,1.58892E+12,08/05/2020,1.58892E+12,
58da74c7f94de20001fbd4af,1598476,28,M,scaleresp,5,2,2,2,1,4,9,1,520,2435.9,52,,344223,0.0-92.0,html-slider-response,92,"<p style=font-size:16px; text-align:center;"">  How responsible do you feel concerning <br> the outcome ? </p>""",,08/05/2020,1.58892E+12,08/05/2020,1.58892E+12,
5be57da1f6b5dd0001170bbe,4467383,36,F,scaleresp,2,1,2,2,2,10,12,0,1511,1991.355,45,,359622,0.0-143.0,html-slider-response,143,"<p style=font-size:16px; text-align:center;"">  How responsible do you feel concerning <br> the outcome ? </p>""",,08/05/2020,1.58892E+12,08/05/2020,1.58892E+12,
5d8edb6a999d520017b0a66b,3441247,33,M,scaleresp,3,2,2,2,1,4,6,1,890,3868.61,17,,277818,0.0-32.0,html-slider-response,32,"<p style=font-size:16px; text-align:center;"">  How responsible do you feel concerning <br> the outcome ? </p>""",,08/05/2020,1.58892E+12,08/05/2020,1.58892E+12,
5be42fd8d8f5470001f0d1cd,4568129,22,F,scaleresp,1,2,2,2,1,3,18,0,1303,3019.55,45,,280563,0.0-52.0,html-slider-response,52,"<p style=font-size:16px; text-align:center;"">  How responsible do you feel concerning <br> the outcome ? </p>""",,08/05/2020,1.58892E+12,08/05/2020,1.58892E+12,
5d78e48415b10d00163c814e,3964510,20,M,survey,,,,,,,,,,8486,,,79354,0.0-4.0,survey-text,4,,"{Q0"":""20""","Q1:""M""}""",08/05/2020,1.58892E+12,08/05/2020,1.58892E+12
5c1920c45782120001f6beff,1629236,33,m,scaleresp,20,1,2,2,1,3,8,1,842,2365,65,,213727,0.0-52.0,html-slider-response,52,"<p style=font-size:16px; text-align:center;"">  How responsible do you feel concerning <br> the outcome ? </p>""",,08/05/2020,1.58892E+12,08/05/2020,1.58892E+12,
57754d57ca706f000190eaf1,8231485,35,M,scaleresp,16,1,1,1,1,6,9,0,1012,2278.4,92,,368827,0.0-107.0,html-slider-response,107,"<p style=font-size:16px; text-align:center;"">  How responsible do you feel concerning <br> the outcome ? </p>""",,08/05/2020,1.58892E+12,08/05/2020,1.58892E+12,
5e5185f14aa7081a81ea3faf,6447883,26,F,scaleresp,1,2,2,2,1,4,13,0,952,2092.485,67,,270947,0.0-62.0,html-slider-response,62,"<p style=font-size:16px; text-align:center;"">  How responsible do you feel concerning <br> the outcome ? </p>""",,08/05/2020,1.58892E+12,08/05/2020,1.58892E+12,
5ea02a1c3fb6e60009f91bb0,5549325,24,M,survey,,,,,,,,,,41554,,,117700,0.0-4.0,survey-text,4,,"{Q0"":""24""","Q1:""M""}""",08/05/2020,1.58892E+12,08/05/2020,1.58892E+12
59da0b3103203500011acfec,2742857,31,F,scaleresp,7,2,2,1,1,10,13,1,939,3560.93,29,,221403,0.0-37.0,html-slider-response,37,"<p style=font-size:16px; text-align:center;"">  How responsible do you feel concerning <br> the outcome ? </p>""",,08/05/2020,1.58892E+12,08/05/2020,1.58892E+12,
5c4bb5a2620ba700010bf02b,1089596,18,M,scaleresp,19,2,1,1,1,7,14,1,1000,2967.185,86,,261795,0.0-72.0,html-slider-response,72,"<p style=font-size:16px; text-align:center;"">  How responsible do you feel concerning <br> the outcome ? </p>""",,08/05/2020,1.58892E+12,08/05/2020,1.58892E+12,
5ca59f9f30710b001605b491,8120291,20,m,scaleresp,14,1,1,2,1,17,19,1,1073,2331.63,0,,274978,0.0-92.0,html-slider-response,92,"<p style=font-size:16px; text-align:center;"">  How responsible do you feel concerning <br> the outcome ? </p>""",,08/05/2020,1.58892E+12,08/05/2020,1.58892E+12,
58da74c7f94de20001fbd4af,1598476,28,M,scaleresp,3,2,2,2,1,10,19,1,480,1338.5,54,,354783,0.0-97.0,html-slider-response,97,"<p style=font-size:16px; text-align:center;"">  How responsible do you feel concerning <br> the outcome ? </p>""",,08/05/2020,1.58892E+12,08/05/2020,1.58892E+12,
5be57da1f6b5dd0001170bbe,4467383,36,F,scaleresp,10,1,1,2,2,6,17,0,551,1676.86,64,,370847,0.0-148.0,html-slider-response,148,"<p style=font-size:16px; text-align:center;"">  How responsible do you feel concerning <br> the outcome ? </p>""",,08/05/2020,1.58892E+12,08/05/2020,1.58892E+12,
5d8edb6a999d520017b0a66b,3441247,33,M,scaleresp,15,2,1,2,1,5,8,1,900,2183.045,14,,289457,0.0-37.0,html-slider-response,37,"<p style=font-size:16px; text-align:center;"">  How responsible do you feel concerning <br> the outcome ? </p>""",,08/05/2020,1.58892E+12,08/05/2020,1.58892E+12,
5c1920c45782120001f6beff,1629236,33,m,scaleresp,2,1,2,2,1,4,16,0,1222,2158,77,,225709,0.0-57.0,html-slider-response,57,"<p style=font-size:16px; text-align:center;"">  How responsible do you feel concerning <br> the outcome ? </p>""",,08/05/2020,1.58892E+12,08/05/2020,1.58892E+12,
5be42fd8d8f5470001f0d1cd,4568129,22,F,scaleresp,18,1,1,1,1,1,16,1,1160,2937.18,41,,293592,0.0-57.0,html-slider-response,57,"<p style=font-size:16px; text-align:center;"">  How responsible do you feel concerning <br> the outcome ? </p>""",,08/05/2020,1.58892E+12,08/05/2020,1.58892E+12,
5e5185f14aa7081a81ea3faf,6447883,26,F,scaleresp,18,1,1,1,1,6,15,0,962,2235.785,57,,282709,0.0-67.0,html-slider-response,67,"<p style=font-size:16px; text-align:center;"">  How responsible do you feel concerning <br> the outcome ? </p>""",,08/05/2020,1.58892E+12,08/05/2020,1.58892E+12,
57754d57ca706f000190eaf1,8231485,35,M,scaleresp,1,2,2,2,2,1,10,1,1518,1642.6,15,,382884,0.0-113.0,html-slider-response,113,"<p style=font-size:16px; text-align:center;"">  How responsible do you feel concerning <br> the outcome ? </p>""",,08/05/2020,1.58892E+12,08/05/2020,1.58892E+12,
59da0b3103203500011acfec,2742857,31,F,scaleresp,11,2,1,2,1,17,18,1,1278,3008.185,37,,234483,0.0-42.0,html-slider-response,42,"<p style=font-size:16px; text-align:center;"">  How responsible do you feel concerning <br> the outcome ? </p>""",,08/05/2020,1.58892E+12,08/05/2020,1.58892E+12,
5c4bb5a2620ba700010bf02b,1089596,18,M,scaleresp,7,2,2,1,1,10,12,,,,,,272712,0.0-77.0,html-slider-response,77,"<p style=font-size:16px; text-align:center;"">  How responsible do you feel concerning <br> the outcome ? </p>""",,08/05/2020,1.58892E+12,08/05/2020,1.58892E+12,
58da74c7f94de20001fbd4af,1598476,28,M,scaleresp,14,1,1,2,1,10,11,1,548,2689.7,53,,366980,0.0-102.0,html-slider-response,102,"<p style=font-size:16px; text-align:center;"">  How responsible do you feel concerning <br> the outcome ? </p>""",,08/05/2020,1.58892E+12,08/05/2020,1.58892E+12,
5ca59f9f30710b001605b491,8120291,20,m,scaleresp,19,2,1,1,1,1,4,0,815,1782.61,0,,287142,0.0-97.0,html-slider-response,97,"<p style=font-size:16px; text-align:center;"">  How responsible do you feel concerning <br> the outcome ? </p>""",,08/05/2020,1.58892E+12,08/05/2020,1.58892E+12,
5be57da1f6b5dd0001170bbe,4467383,36,F,scaleresp,17,2,1,1,2,6,10,0,491,1950.775,43,,381863,0.0-153.0,html-slider-response,153,"<p style=font-size:16px; text-align:center;"">  How responsible do you feel concerning <br> the outcome ? </p>""",,08/05/2020,1.58892E+12,08/05/2020,1.58892E+12,
5d8edb6a999d520017b0a66b,3441247,33,M,scaleresp,13,2,1,2,1,3,16,0,1122,3175.52,16,,302737,0.0-42.0,html-slider-response,42,"<p style=font-size:16px; text-align:center;"">  How responsible do you feel concerning <br> the outcome ? </p>""",,08/05/2020,1.58892E+12,08/05/2020,1.58892E+12,
5c1920c45782120001f6beff,1629236,33,m,scaleresp,5,2,2,2,1,13,20,0,1095,1787,86,,237611,0.0-62.0,html-slider-response,62,"<p style=font-size:16px; text-align:center;"">  How responsible do you feel concerning <br> the outcome ? </p>""",,08/05/2020,1.58892E+12,08/05/2020,1.58892E+12,
5be42fd8d8f5470001f0d1cd,4568129,22,F,scaleresp,7,2,2,1,1,2,15,0,728,2904.1,61,,306075,0.0-62.0,html-slider-response,62,"<p style=font-size:16px; text-align:center;"">  How responsible do you feel concerning <br> the outcome ? </p>""",,08/05/2020,1.58892E+12,08/05/2020,1.58892E+12,
5a9844231eda4100013653a9,4761338,29,M,scaleresp,7,2,2,1,1,6,7,1,809,3129,69,,107756,0.0-12.0,html-slider-response,12,"<p style=font-size:16px; text-align:center;"">  How responsible do you feel concerning <br> the outcome ? </p>""",,08/05/2020,1.58892E+12,08/05/2020,1.58892E+12,
5e5185f14aa7081a81ea3faf,6447883,26,F,scaleresp,4,1,2,2,1,6,8,1,725,4307.57,60,,296301,0.0-72.0,html-slider-response,72,"<p style=font-size:16px; text-align:center;"">  How responsible do you feel concerning <br> the outcome ? </p>""",,08/05/2020,1.58892E+12,08/05/2020,1.58892E+12,
57754d57ca706f000190eaf1,8231485,35,M,scaleresp,16,1,1,1,2,1,9,0,1003,1607.8,75,,394408,0.0-118.0,html-slider-response,118,"<p style=font-size:16px; text-align:center;"">  How responsible do you feel concerning <br> the outcome ? </p>""",,08/05/2020,1.58892E+12,08/05/2020,1.58892E+12,
5d74f215797977000195ac52,5375603,,,surveyid,,,,,,,,,,5315,,,88421,0.0-3.0,survey-text,3,,"{Q0"":""5d74f215797977000195ac52""}""",08/05/2020,1.58892E+12,08/05/2020,1.58893E+12,
5e90a3ac672c833b91ddcd57,6904783,,,surveyid,,,,,,,,,,9902,,,25732,0.0-3.0,survey-text,3,,"{Q0"":""5e90a3ac672c833b91ddcd57""}""",08/05/2020,1.58892E+12,08/05/2020,1.58892E+12,
5c4bb5a2620ba700010bf02b,1089596,18,M,scaleresp,4,1,2,2,1,6,20,0,942,1804.465,78,,284271,0.0-82.0,html-slider-response,82,"<p style=font-size:16px; text-align:center;"">  How responsible do you feel concerning <br> the outcome ? </p>""",,08/05/2020,1.58892E+12,08/05/2020,1.58892E+12,
58da74c7f94de20001fbd4af,1598476,28,M,scaleresp,10,1,1,2,1,2,18,1,613,1396.6,53,,377843,0.0-107.0,html-slider-response,107,"<p style=font-size:16px; text-align:center;"">  How responsible do you feel concerning <br> the outcome ? </p>""",,08/05/2020,1.58892E+12,08/05/2020,1.58892E+12,
5ca59f9f30710b001605b491,8120291,20,m,scaleresp,3,2,2,2,1,1,13,0,947,1406.02,100,,298268,0.0-102.0,html-slider-response,102,"<p style=font-size:16px; text-align:center;"">  How responsible do you feel concerning <br> the outcome ? </p>""",,08/05/2020,1.58892E+12,08/05/2020,1.58892E+12,
59da0b3103203500011acfec,2742857,31,F,scaleresp,12,1,1,2,1,3,16,1,1119,2947.42,24,,247248,0.0-47.0,html-slider-response,47,"<p style=font-size:16px; text-align:center;"">  How responsible do you feel concerning <br> the outcome ? </p>""",,08/05/2020,1.58892E+12,08/05/2020,1.58892E+12,
5be57da1f6b5dd0001170bbe,4467383,36,F,scaleresp,4,1,2,2,2,4,11,1,1162,1832.24,46,,393870,0.0-158.0,html-slider-response,158,"<p style=font-size:16px; text-align:center;"">  How responsible do you feel concerning <br> the outcome ? </p>""",,08/05/2020,1.58892E+12,08/05/2020,1.58892E+12,
5e90a3ac672c833b91ddcd57,6904783,20,M,survey,,,,,,,,,,4445,,,30179,0.0-4.0,survey-text,4,,"{Q0"":""20""","Q1:""M""}""",08/05/2020,1.58892E+12,08/05/2020,1.58892E+12
5c1920c45782120001f6beff,1629236,33,m,scaleresp,11,2,1,2,1,2,6,1,1022,1441,66,,248752,0.0-67.0,html-slider-response,67,"<p style=font-size:16px; text-align:center;"">  How responsible do you feel concerning <br> the outcome ? </p>""",,08/05/2020,1.58892E+12,08/05/2020,1.58892E+12,
5d8edb6a999d520017b0a66b,3441247,33,M,scaleresp,18,1,1,1,1,1,17,0,944,3971.695,76,,316296,0.0-47.0,html-slider-response,47,"<p style=font-size:16px; text-align:center;"">  How responsible do you feel concerning <br> the outcome ? </p>""",,08/05/2020,1.58892E+12,08/05/2020,1.58892E+12,
5be42fd8d8f5470001f0d1cd,4568129,22,F,scaleresp,2,1,2,2,1,3,15,1,826,2317.72,49,,317982,0.0-67.0,html-slider-response,67,"<p style=font-size:16px; text-align:center;"">  How responsible do you feel concerning <br> the outcome ? </p>""",,08/05/2020,1.58892E+12,08/05/2020,1.58892E+12,
5a9844231eda4100013653a9,4761338,29,M,scaleresp,14,1,1,2,1,1,4,0,769,1987,84,,119261,0.0-17.0,html-slider-response,17,"<p style=font-size:16px; text-align:center;"">  How responsible do you feel concerning <br> the outcome ? </p>""",,08/05/2020,1.58892E+12,08/05/2020,1.58892E+12,
57754d57ca706f000190eaf1,8231485,35,M,scaleresp,20,1,2,2,2,9,14,0,1012,1480.9,14,,405626,0.0-123.0,html-slider-response,123,"<p style=font-size:16px; text-align:center;"">  How responsible do you feel concerning <br> the outcome ? </p>""",,08/05/2020,1.58892E+12,08/05/2020,1.58892E+12,
5e5185f14aa7081a81ea3faf,6447883,26,F,scaleresp,13,2,1,2,1,10,17,0,1320,1550.01,57,,308057,0.0-77.0,html-slider-response,77,"<p style=font-size:16px; text-align:center;"">  How responsible do you feel concerning <br> the outcome ? </p>""",,08/05/2020,1.58892E+12,08/05/2020,1.58892E+12,
5c4bb5a2620ba700010bf02b,1089596,18,M,scaleresp,2,1,2,2,1,1,14,1,798,1905.355,78,,295904,0.0-87.0,html-slider-response,87,"<p style=font-size:16px; text-align:center;"">  How responsible do you feel concerning <br> the outcome ? </p>""",,08/05/2020,1.58892E+12,08/05/2020,1.58892E+12,
5ca59f9f30710b001605b491,8120291,20,m,scaleresp,12,1,1,2,1,14,17,1,777,1668.025,0,,309616,0.0-107.0,html-slider-response,107,"<p style=font-size:16px; text-align:center;"">  How responsible do you feel concerning <br> the outcome ? </p>""",,08/05/2020,1.58892E+12,08/05/2020,1.58892E+12,
59da0b3103203500011acfec,2742857,31,F,scaleresp,8,1,2,1,1,6,12,1,1021,2627.125,31,,259465,0.0-52.0,html-slider-response,52,"<p style=font-size:16px; text-align:center;"">  How responsible do you feel concerning <br> the outcome ? </p>""",,08/05/2020,1.58892E+12,08/05/2020,1.58892E+12,
5be57da1f6b5dd0001170bbe,4467383,36,F,scaleresp,7,2,2,1,2,2,7,0,829,1769.46,44,,405038,0.0-163.0,html-slider-response,163,"<p style=font-size:16px; text-align:center;"">  How responsible do you feel concerning <br> the outcome ? </p>""",,08/05/2020,1.58892E+12,08/05/2020,1.58892E+12,
58da74c7f94de20001fbd4af,1598476,28,M,scaleresp,19,2,1,1,2,14,17,1,1119,1509,52,,391268,0.0-113.0,html-slider-response,113,"<p style=font-size:16px; text-align:center;"">  How responsible do you feel concerning <br> the outcome ? </p>""",,08/05/2020,1.58892E+12,08/05/2020,1.58892E+12,
5d74f215797977000195ac52,5375603,33,m,survey,,,,,,,,,,16756,,,105185,0.0-4.0,survey-text,4,,"{Q0"":""33""","Q1:""m""}""",08/05/2020,1.58892E+12,08/05/2020,1.58893E+12
5c1920c45782120001f6beff,1629236,33,m,scaleresp,13,2,1,2,1,1,8,0,723,1742,59,,260231,0.0-72.0,html-slider-response,72,"<p style=font-size:16px; text-align:center;"">  How responsible do you feel concerning <br> the outcome ? </p>""",,08/05/2020,1.58892E+12,08/05/2020,1.58892E+12,
5a9844231eda4100013653a9,4761338,29,M,scaleresp,4,1,2,2,1,3,5,1,928,2383,73,,131101,0.0-22.0,html-slider-response,22,"<p style=font-size:16px; text-align:center;"">  How responsible do you feel concerning <br> the outcome ? </p>""",,08/05/2020,1.58892E+12,08/05/2020,1.58892E+12,
57754d57ca706f000190eaf1,8231485,35,M,scaleresp,13,2,1,2,2,5,13,0,1034,1355.7,19,,417020,0.0-128.0,html-slider-response,128,"<p style=font-size:16px; text-align:center;"">  How responsible do you feel concerning <br> the outcome ? </p>""",,08/05/2020,1.58892E+12,08/05/2020,1.58892E+12,
5be42fd8d8f5470001f0d1cd,4568129,22,F,scaleresp,3,2,2,2,1,4,11,1,704,3228.085,39,,330870,0.0-72.0,html-slider-response,72,"<p style=font-size:16px; text-align:center;"">  How responsible do you feel concerning <br> the outcome ? </p>""",,08/05/2020,1.58892E+12,08/05/2020,1.58892E+12,
5e5185f14aa7081a81ea3faf,6447883,26,F,scaleresp,17,2,1,1,1,2,19,1,1000,1659.625,57,,319711,0.0-82.0,html-slider-response,82,"<p style=font-size:16px; text-align:center;"">  How responsible do you feel concerning <br> the outcome ? </p>""",,08/05/2020,1.58892E+12,08/05/2020,1.58892E+12,
5d8edb6a999d520017b0a66b,3441247,33,M,scaleresp,1,2,2,2,1,10,12,1,1266,4263.8,23,,330691,0.0-52.0,html-slider-response,52,"<p style=font-size:16px; text-align:center;"">  How responsible do you feel concerning <br> the outcome ? </p>""",,08/05/2020,1.58892E+12,08/05/2020,1.58892E+12,
5c4bb5a2620ba700010bf02b,1089596,18,M,scaleresp,12,1,1,2,1,3,18,,,,,,306637,0.0-92.0,html-slider-response,92,"<p style=font-size:16px; text-align:center;"">  How responsible do you feel concerning <br> the outcome ? </p>""",,08/05/2020,1.58892E+12,08/05/2020,1.58892E+12,
5be57da1f6b5dd0001170bbe,4467383,36,F,scaleresp,9,2,2,1,2,12,19,1,693,1394.605,39,,415814,0.0-168.0,html-slider-response,168,"<p style=font-size:16px; text-align:center;"">  How responsible do you feel concerning <br> the outcome ? </p>""",,08/05/2020,1.58892E+12,08/05/2020,1.58892E+12,
5ca59f9f30710b001605b491,8120291,20,m,scaleresp,16,1,1,1,2,9,12,0,861,1425.465,0,,321848,0.0-113.0,html-slider-response,113,"<p style=font-size:16px; text-align:center;"">  How responsible do you feel concerning <br> the outcome ? </p>""",,08/05/2020,1.58892E+12,08/05/2020,1.58892E+12,
59da0b3103203500011acfec,2742857,31,F,scaleresp,4,1,2,2,1,5,8,1,1047,2133.32,60,,271443,0.0-57.0,html-slider-response,57,"<p style=font-size:16px; text-align:center;"">  How responsible do you feel concerning <br> the outcome ? </p>""",,08/05/2020,1.58892E+12,08/05/2020,1.58892E+12,
58da74c7f94de20001fbd4af,1598476,28,M,scaleresp,1,2,2,2,2,8,14,1,652,1395.7,54,,402391,0.0-118.0,html-slider-response,118,"<p style=font-size:16px; text-align:center;"">  How responsible do you feel concerning <br> the outcome ? </p>""",,08/05/2020,1.58892E+12,08/05/2020,1.58892E+12,
5c1920c45782120001f6beff,1629236,33,m,scaleresp,19,2,1,1,1,6,10,0,796,2169,60,,271986,0.0-77.0,html-slider-response,77,"<p style=font-size:16px; text-align:center;"">  How responsible do you feel concerning <br> the outcome ? </p>""",,08/05/2020,1.58892E+12,08/05/2020,1.58892E+12,
57754d57ca706f000190eaf1,8231485,35,M,scaleresp,5,2,2,2,2,13,18,0,887,1668.7,86,,428272,0.0-133.0,html-slider-response,133,"<p style=font-size:16px; text-align:center;"">  How responsible do you feel concerning <br> the outcome ? </p>""",,08/05/2020,1.58892E+12,08/05/2020,1.58892E+12,
5a9844231eda4100013653a9,4761338,29,M,scaleresp,13,2,1,2,1,11,17,1,563,2250,69,,142467,0.0-27.0,html-slider-response,27,"<p style=font-size:16px; text-align:center;"">  How responsible do you feel concerning <br> the outcome ? </p>""",,08/05/2020,1.58892E+12,08/05/2020,1.58892E+12,
5e5185f14aa7081a81ea3faf,6447883,26,F,scaleresp,6,1,2,1,1,7,20,1,715,2101.255,38,,331522,0.0-87.0,html-slider-response,87,"<p style=font-size:16px; text-align:center;"">  How responsible do you feel concerning <br> the outcome ? </p>""",,08/05/2020,1.58892E+12,08/05/2020,1.58892E+12,
5be42fd8d8f5470001f0d1cd,4568129,22,F,scaleresp,8,1,2,1,1,5,7,0,790,3030.72,69,,343416,0.0-77.0,html-slider-response,77,"<p style=font-size:16px; text-align:center;"">  How responsible do you feel concerning <br> the outcome ? </p>""",,08/05/2020,1.58892E+12,08/05/2020,1.58892E+12,
5c4bb5a2620ba700010bf02b,1089596,18,M,scaleresp,9,2,2,1,1,13,15,0,566,1994.575,81,,318031,0.0-97.0,html-slider-response,97,"<p style=font-size:16px; text-align:center;"">  How responsible do you feel concerning <br> the outcome ? </p>""",,08/05/2020,1.58892E+12,08/05/2020,1.58892E+12,
5d8edb6a999d520017b0a66b,3441247,33,M,scaleresp,16,1,1,1,1,3,18,1,990,3706.455,94,,344014,0.0-57.0,html-slider-response,57,"<p style=font-size:16px; text-align:center;"">  How responsible do you feel concerning <br> the outcome ? </p>""",,08/05/2020,1.58892E+12,08/05/2020,1.58892E+12,
5be57da1f6b5dd0001170bbe,4467383,36,F,scaleresp,13,2,1,2,2,6,9,1,873,1433.04,65,,427023,0.0-173.0,html-slider-response,173,"<p style=font-size:16px; text-align:center;"">  How responsible do you feel concerning <br> the outcome ? </p>""",,08/05/2020,1.58892E+12,08/05/2020,1.58892E+12,
5ca59f9f30710b001605b491,8120291,20,m,scaleresp,7,2,2,1,2,9,18,0,803,1495.035,0,,333120,0.0-118.0,html-slider-response,118,"<p style=font-size:16px; text-align:center;"">  How responsible do you feel concerning <br> the outcome ? </p>""",,08/05/2020,1.58892E+12,08/05/2020,1.58892E+12,
58da74c7f94de20001fbd4af,1598476,28,M,scaleresp,3,2,2,2,2,8,11,1,1090,1957.8,56,,414177,0.0-123.0,html-slider-response,123,"<p style=font-size:16px; text-align:center;"">  How responsible do you feel concerning <br> the outcome ? </p>""",,08/05/2020,1.58892E+12,08/05/2020,1.58892E+12,
5e2d52d7e1a0e73431c7dd06,6980585,21,M,scaleresp,7,2,2,1,1,9,17,1,1591,59263.79,59,,422363,0.0-17.0,html-slider-response,17,"<p style=font-size:16px; text-align:center;"">  How responsible do you feel concerning <br> the outcome ? </p>""",,08/05/2020,1.58892E+12,08/05/2020,1.58892E+12,
59da0b3103203500011acfec,2742857,31,F,scaleresp,17,2,1,1,1,1,17,0,1912,2099.655,61,,284272,0.0-62.0,html-slider-response,62,"<p style=font-size:16px; text-align:center;"">  How responsible do you feel concerning <br> the outcome ? </p>""",,08/05/2020,1.58892E+12,08/05/2020,1.58892E+12,
5c1920c45782120001f6beff,1629236,33,m,scaleresp,15,2,1,2,1,12,16,0,793,1446,56,,282909,0.0-82.0,html-slider-response,82,"<p style=font-size:16px; text-align:center;"">  How responsible do you feel concerning <br> the outcome ? </p>""",,08/05/2020,1.58892E+12,08/05/2020,1.58892E+12,
57754d57ca706f000190eaf1,8231485,35,M,scaleresp,19,2,1,1,2,8,18,0,856,1499.6,24,,439446,0.0-138.0,html-slider-response,138,"<p style=font-size:16px; text-align:center;"">  How responsible do you feel concerning <br> the outcome ? </p>""",,08/05/2020,1.58892E+12,08/05/2020,1.58892E+12,
5a9844231eda4100013653a9,4761338,29,M,scaleresp,19,2,1,1,1,2,14,0,566,2201,71,,154030,0.0-32.0,html-slider-response,32,"<p style=font-size:16px; text-align:center;"">  How responsible do you feel concerning <br> the outcome ? </p>""",,08/05/2020,1.58892E+12,08/05/2020,1.58892E+12,
5e5185f14aa7081a81ea3faf,6447883,26,F,scaleresp,19,2,1,1,1,6,10,1,678,2232.95,59,,343295,0.0-92.0,html-slider-response,92,"<p style=font-size:16px; text-align:center;"">  How responsible do you feel concerning <br> the outcome ? </p>""",,08/05/2020,1.58892E+12,08/05/2020,1.58892E+12,
5c4bb5a2620ba700010bf02b,1089596,18,M,scaleresp,3,2,2,2,1,9,15,1,1221,2073.435,16,,330228,0.0-102.0,html-slider-response,102,"<p style=font-size:16px; text-align:center;"">  How responsible do you feel concerning <br> the outcome ? </p>""",,08/05/2020,1.58892E+12,08/05/2020,1.58892E+12,
5be42fd8d8f5470001f0d1cd,4568129,22,F,scaleresp,12,1,1,2,1,4,7,0,800,2828.705,56,,356048,0.0-82.0,html-slider-response,82,"<p style=font-size:16px; text-align:center;"">  How responsible do you feel concerning <br> the outcome ? </p>""",,08/05/2020,1.58892E+12,08/05/2020,1.58892E+12,
5be57da1f6b5dd0001170bbe,4467383,36,F,scaleresp,12,1,1,2,2,2,5,1,615,1476.125,42,,437847,0.0-178.0,html-slider-response,178,"<p style=font-size:16px; text-align:center;"">  How responsible do you feel concerning <br> the outcome ? </p>""",,08/05/2020,1.58892E+12,08/05/2020,1.58892E+12,
5d8edb6a999d520017b0a66b,3441247,33,M,scaleresp,17,2,1,1,1,1,4,1,916,2114.77,30,,355815,0.0-62.0,html-slider-response,62,"<p style=font-size:16px; text-align:center;"">  How responsible do you feel concerning <br> the outcome ? </p>""",,08/05/2020,1.58892E+12,08/05/2020,1.58892E+12,
5ca59f9f30710b001605b491,8120291,20,m,scaleresp,14,1,1,2,2,8,11,0,762,1765.56,0,,344200,0.0-123.0,html-slider-response,123,"<p style=font-size:16px; text-align:center;"">  How responsible do you feel concerning <br> the outcome ? </p>""",,08/05/2020,1.58892E+12,08/05/2020,1.58892E+12,
5e2d52d7e1a0e73431c7dd06,6980585,21,M,scaleresp,11,2,1,2,1,5,6,,,,,,433024,0.0-22.0,html-slider-response,22,"<p style=font-size:16px; text-align:center;"">  How responsible do you feel concerning <br> the outcome ? </p>""",,08/05/2020,1.58892E+12,08/05/2020,1.58892E+12,
58da74c7f94de20001fbd4af,1598476,28,M,scaleresp,10,1,1,2,2,5,7,1,630,2688.2,52,,426144,0.0-128.0,html-slider-response,128,"<p style=font-size:16px; text-align:center;"">  How responsible do you feel concerning <br> the outcome ? </p>""",,08/05/2020,1.58892E+12,08/05/2020,1.58892E+12,
59da0b3103203500011acfec,2742857,31,F,scaleresp,2,1,2,2,1,7,19,,,,,,295225,0.0-67.0,html-slider-response,67,"<p style=font-size:16px; text-align:center;"">  How responsible do you feel concerning <br> the outcome ? </p>""",,08/05/2020,1.58892E+12,08/05/2020,1.58892E+12,
5c1920c45782120001f6beff,1629236,33,m,scaleresp,17,2,1,1,1,8,14,0,749,1588,54,,293944,0.0-87.0,html-slider-response,87,"<p style=font-size:16px; text-align:center;"">  How responsible do you feel concerning <br> the outcome ? </p>""",,08/05/2020,1.58892E+12,08/05/2020,1.58892E+12,
57754d57ca706f000190eaf1,8231485,35,M,scaleresp,2,1,2,2,2,18,19,1,915,1344.1,94,,450699,0.0-143.0,html-slider-response,143,"<p style=font-size:16px; text-align:center;"">  How responsible do you feel concerning <br> the outcome ? </p>""",,08/05/2020,1.58892E+12,08/05/2020,1.58892E+12,
5a9844231eda4100013653a9,4761338,29,M,scaleresp,12,1,1,2,1,7,10,1,546,2803,62,,166016,0.0-37.0,html-slider-response,37,"<p style=font-size:16px; text-align:center;"">  How responsible do you feel concerning <br> the outcome ? </p>""",,08/05/2020,1.58892E+12,08/05/2020,1.58892E+12,
5e5185f14aa7081a81ea3faf,6447883,26,F,scaleresp,11,2,1,2,1,12,13,0,1421,2058.63,62,,355581,0.0-97.0,html-slider-response,97,"<p style=font-size:16px; text-align:center;"">  How responsible do you feel concerning <br> the outcome ? </p>""",,08/05/2020,1.58892E+12,08/05/2020,1.58892E+12,
5c4bb5a2620ba700010bf02b,1089596,18,M,scaleresp,16,1,1,1,1,15,16,,,,,,341006,0.0-107.0,html-slider-response,107,"<p style=font-size:16px; text-align:center;"">  How responsible do you feel concerning <br> the outcome ? </p>""",,08/05/2020,1.58892E+12,08/05/2020,1.58892E+12,
5be57da1f6b5dd0001170bbe,4467383,36,F,scaleresp,3,2,2,2,2,7,16,0,861,1624.71,34,,449014,0.0-183.0,html-slider-response,183,"<p style=font-size:16px; text-align:center;"">  How responsible do you feel concerning <br> the outcome ? </p>""",,08/05/2020,1.58892E+12,08/05/2020,1.58892E+12,
5d8edb6a999d520017b0a66b,3441247,33,M,scaleresp,2,1,2,2,1,11,13,0,1058,1761.87,37,,367476,0.0-67.0,html-slider-response,67,"<p style=font-size:16px; text-align:center;"">  How responsible do you feel concerning <br> the outcome ? </p>""",,08/05/2020,1.58892E+12,08/05/2020,1.58892E+12,
5be42fd8d8f5470001f0d1cd,4568129,22,F,scaleresp,13,2,1,2,1,2,19,1,760,2896.525,38,,368561,0.0-87.0,html-slider-response,87,"<p style=font-size:16px; text-align:center;"">  How responsible do you feel concerning <br> the outcome ? </p>""",,08/05/2020,1.58892E+12,08/05/2020,1.58892E+12,
5e2d52d7e1a0e73431c7dd06,6980585,21,M,scaleresp,10,1,1,2,1,8,10,,,,,,443983,0.0-27.0,html-slider-response,27,"<p style=font-size:16px; text-align:center;"">  How responsible do you feel concerning <br> the outcome ? </p>""",,08/05/2020,1.58892E+12,08/05/2020,1.58892E+12,
5ca59f9f30710b001605b491,8120291,20,m,scaleresp,6,1,2,1,2,7,9,0,1079,1702.395,0,,355884,0.0-128.0,html-slider-response,128,"<p style=font-size:16px; text-align:center;"">  How responsible do you feel concerning <br> the outcome ? </p>""",,08/05/2020,1.58892E+12,08/05/2020,1.58892E+12,
58da74c7f94de20001fbd4af,1598476,28,M,scaleresp,14,1,1,2,2,11,15,1,520,2187.4,60,,437928,0.0-133.0,html-slider-response,133,"<p style=font-size:16px; text-align:center;"">  How responsible do you feel concerning <br> the outcome ? </p>""",,08/05/2020,1.58892E+12,08/05/2020,1.58892E+12,
59da0b3103203500011acfec,2742857,31,F,scaleresp,1,2,2,2,1,2,16,1,831,2997.875,37,,307760,0.0-72.0,html-slider-response,72,"<p style=font-size:16px; text-align:center;"">  How responsible do you feel concerning <br> the outcome ? </p>""",,08/05/2020,1.58892E+12,08/05/2020,1.58892E+12,
5c1920c45782120001f6beff,1629236,33,m,scaleresp,3,2,2,2,1,12,19,0,1143,2271,62,,306290,0.0-92.0,html-slider-response,92,"<p style=font-size:16px; text-align:center;"">  How responsible do you feel concerning <br> the outcome ? </p>""",,08/05/2020,1.58892E+12,08/05/2020,1.58892E+12,
57754d57ca706f000190eaf1,8231485,35,M,scaleresp,15,2,1,2,2,14,20,1,827,2176.2,12,,462667,0.0-148.0,html-slider-response,148,"<p style=font-size:16px; text-align:center;"">  How responsible do you feel concerning <br> the outcome ? </p>""",,08/05/2020,1.58892E+12,08/05/2020,1.58892E+12,
5e5185f14aa7081a81ea3faf,6447883,26,F,scaleresp,8,1,2,1,1,4,16,1,969,1569.105,39,,366985,0.0-102.0,html-slider-response,102,"<p style=font-size:16px; text-align:center;"">  How responsible do you feel concerning <br> the outcome ? </p>""",,08/05/2020,1.58892E+12,08/05/2020,1.58892E+12,
5a9844231eda4100013653a9,4761338,29,M,scaleresp,10,1,1,2,1,3,19,0,675,3786,62,,179462,0.0-42.0,html-slider-response,42,"<p style=font-size:16px; text-align:center;"">  How responsible do you feel concerning <br> the outcome ? </p>""",,08/05/2020,1.58892E+12,08/05/2020,1.58892E+12,
5be57da1f6b5dd0001170bbe,4467383,36,F,scaleresp,19,2,1,1,2,10,14,1,657,1432.855,65,,460142,0.0-188.0,html-slider-response,188,"<p style=font-size:16px; text-align:center;"">  How responsible do you feel concerning <br> the outcome ? </p>""",,08/05/2020,1.58892E+12,08/05/2020,1.58892E+12,
5e2d52d7e1a0e73431c7dd06,6980585,21,M,scaleresp,9,2,2,1,1,9,10,,,,,,454870,0.0-32.0,html-slider-response,32,"<p style=font-size:16px; text-align:center;"">  How responsible do you feel concerning <br> the outcome ? </p>""",,08/05/2020,1.58892E+12,08/05/2020,1.58892E+12,
5c4bb5a2620ba700010bf02b,1089596,18,M,scaleresp,5,2,2,2,2,18,20,,,,,,353730,0.0-113.0,html-slider-response,113,"<p style=font-size:16px; text-align:center;"">  How responsible do you feel concerning <br> the outcome ? </p>""",,08/05/2020,1.58892E+12,08/05/2020,1.58892E+12,
5ca59f9f30710b001605b491,8120291,20,m,scaleresp,10,1,1,2,2,2,5,0,1723,1840.985,0,,368454,0.0-133.0,html-slider-response,133,"<p style=font-size:16px; text-align:center;"">  How responsible do you feel concerning <br> the outcome ? </p>""",,08/05/2020,1.58892E+12,08/05/2020,1.58892E+12,
5d8edb6a999d520017b0a66b,3441247,33,M,scaleresp,14,1,1,2,1,10,19,1,993,3200.325,27,,380598,0.0-72.0,html-slider-response,72,"<p style=font-size:16px; text-align:center;"">  How responsible do you feel concerning <br> the outcome ? </p>""",,08/05/2020,1.58892E+12,08/05/2020,1.58892E+12,
5be42fd8d8f5470001f0d1cd,4568129,22,F,scaleresp,15,2,1,2,1,2,12,0,825,3527.795,40,,381640,0.0-92.0,html-slider-response,92,"<p style=font-size:16px; text-align:center;"">  How responsible do you feel concerning <br> the outcome ? </p>""",,08/05/2020,1.58892E+12,08/05/2020,1.58892E+12,
58da74c7f94de20001fbd4af,1598476,28,M,scaleresp,13,2,1,2,2,10,15,1,770,1841.2,56,,449407,0.0-138.0,html-slider-response,138,"<p style=font-size:16px; text-align:center;"">  How responsible do you feel concerning <br> the outcome ? </p>""",,08/05/2020,1.58892E+12,08/05/2020,1.58892E+12,
59da0b3103203500011acfec,2742857,31,F,scaleresp,9,2,2,1,1,9,11,1,874,3106.54,39,,320436,0.0-77.0,html-slider-response,77,"<p style=font-size:16px; text-align:center;"">  How responsible do you feel concerning <br> the outcome ? </p>""",,08/05/2020,1.58892E+12,08/05/2020,1.58892E+12,
5c1920c45782120001f6beff,1629236,33,m,scaleresp,10,1,1,2,1,2,7,1,751,1964,55,,318085,0.0-97.0,html-slider-response,97,"<p style=font-size:16px; text-align:center;"">  How responsible do you feel concerning <br> the outcome ? </p>""",,08/05/2020,1.58892E+12,08/05/2020,1.58892E+12,
57754d57ca706f000190eaf1,8231485,35,M,scaleresp,9,2,2,1,2,8,15,0,1070,1393.6,77,,473858,0.0-153.0,html-slider-response,153,"<p style=font-size:16px; text-align:center;"">  How responsible do you feel concerning <br> the outcome ? </p>""",,08/05/2020,1.58892E+12,08/05/2020,1.58892E+12,
5e5185f14aa7081a81ea3faf,6447883,26,F,scaleresp,12,1,1,2,1,2,17,0,920,1966.875,57,,378704,0.0-107.0,html-slider-response,107,"<p style=font-size:16px; text-align:center;"">  How responsible do you feel concerning <br> the outcome ? </p>""",,08/05/2020,1.58892E+12,08/05/2020,1.58892E+12,
5be57da1f6b5dd0001170bbe,4467383,36,F,scaleresp,16,1,1,1,2,3,6,0,726,1652.31,76,,471166,0.0-193.0,html-slider-response,193,"<p style=font-size:16px; text-align:center;"">  How responsible do you feel concerning <br> the outcome ? </p>""",,08/05/2020,1.58892E+12,08/05/2020,1.58892E+12,
5c4bb5a2620ba700010bf02b,1089596,18,M,scaleresp,12,1,1,2,2,14,17,1,328,1301.735,69,,364210,0.0-118.0,html-slider-response,118,"<p style=font-size:16px; text-align:center;"">  How responsible do you feel concerning <br> the outcome ? </p>""",,08/05/2020,1.58892E+12,08/05/2020,1.58892E+12,
5e2d52d7e1a0e73431c7dd06,6980585,21,M,scaleresp,4,1,2,2,1,7,8,,,,,,465887,0.0-37.0,html-slider-response,37,"<p style=font-size:16px; text-align:center;"">  How responsible do you feel concerning <br> the outcome ? </p>""",,08/05/2020,1.58892E+12,08/05/2020,1.58892E+12,
5a9844231eda4100013653a9,4761338,29,M,scaleresp,2,1,2,2,1,5,8,1,1438,2457,68,,192138,0.0-47.0,html-slider-response,47,"<p style=font-size:16px; text-align:center;"">  How responsible do you feel concerning <br> the outcome ? </p>""",,08/05/2020,1.58892E+12,08/05/2020,1.58892E+12,
5ca59f9f30710b001605b491,8120291,20,m,scaleresp,5,2,2,2,2,13,20,1,1078,1299.6,0,,379816,0.0-138.0,html-slider-response,138,"<p style=font-size:16px; text-align:center;"">  How responsible do you feel concerning <br> the outcome ? </p>""",,08/05/2020,1.58892E+12,08/05/2020,1.58892E+12,
5d8edb6a999d520017b0a66b,3441247,33,M,scaleresp,11,2,1,2,1,2,3,0,1306,2322.055,21,,392980,0.0-77.0,html-slider-response,77,"<p style=font-size:16px; text-align:center;"">  How responsible do you feel concerning <br> the outcome ? </p>""",,08/05/2020,1.58892E+12,08/05/2020,1.58892E+12,
58da74c7f94de20001fbd4af,1598476,28,M,scaleresp,8,1,2,1,2,9,20,1,958,1624.6,52,,460729,0.0-143.0,html-slider-response,143,"<p style=font-size:16px; text-align:center;"">  How responsible do you feel concerning <br> the outcome ? </p>""",,08/05/2020,1.58892E+12,08/05/2020,1.58892E+12,
5be42fd8d8f5470001f0d1cd,4568129,22,F,scaleresp,10,1,1,2,1,1,9,1,804,2861.59,42,,394246,0.0-97.0,html-slider-response,97,"<p style=font-size:16px; text-align:center;"">  How responsible do you feel concerning <br> the outcome ? </p>""",,08/05/2020,1.58892E+12,08/05/2020,1.58892E+12,
59da0b3103203500011acfec,2742857,31,F,scaleresp,19,2,1,1,1,4,16,1,764,2463.68,61,,332349,0.0-82.0,html-slider-response,82,"<p style=font-size:16px; text-align:center;"">  How responsible do you feel concerning <br> the outcome ? </p>""",,08/05/2020,1.58892E+12,08/05/2020,1.58892E+12,
5c1920c45782120001f6beff,1629236,33,m,scaleresp,6,1,2,1,1,5,16,0,565,1622,59,,329287,0.0-102.0,html-slider-response,102,"<p style=font-size:16px; text-align:center;"">  How responsible do you feel concerning <br> the outcome ? </p>""",,08/05/2020,1.58892E+12,08/05/2020,1.58892E+12,
57754d57ca706f000190eaf1,8231485,35,M,scaleresp,6,1,2,1,2,1,4,0,958,1806.7,75,,485439,0.0-158.0,html-slider-response,158,"<p style=font-size:16px; text-align:center;"">  How responsible do you feel concerning <br> the outcome ? </p>""",,08/05/2020,1.58892E+12,08/05/2020,1.58892E+12,
5c4bb5a2620ba700010bf02b,1089596,18,M,scaleresp,1,2,2,2,2,4,19,1,411,1240.715,26,,374650,0.0-123.0,html-slider-response,123,"<p style=font-size:16px; text-align:center;"">  How responsible do you feel concerning <br> the outcome ? </p>""",,08/05/2020,1.58892E+12,08/05/2020,1.58892E+12,
5be57da1f6b5dd0001170bbe,4467383,36,F,scaleresp,11,2,1,2,2,6,7,0,786,1964.48,74,,482486,0.0-198.0,html-slider-response,198,"<p style=font-size:16px; text-align:center;"">  How responsible do you feel concerning <br> the outcome ? </p>""",,08/05/2020,1.58892E+12,08/05/2020,1.58892E+12,
5e2d52d7e1a0e73431c7dd06,6980585,21,M,scaleresp,17,2,1,1,1,11,16,,,,,,476617,0.0-42.0,html-slider-response,42,"<p style=font-size:16px; text-align:center;"">  How responsible do you feel concerning <br> the outcome ? </p>""",,08/05/2020,1.58892E+12,08/05/2020,1.58892E+12,
5a9844231eda4100013653a9,4761338,29,M,scaleresp,11,2,1,2,1,7,8,0,1568,2242,31,,204595,0.0-52.0,html-slider-response,52,"<p style=font-size:16px; text-align:center;"">  How responsible do you feel concerning <br> the outcome ? </p>""",,08/05/2020,1.58892E+12,08/05/2020,1.58892E+12,
5ca59f9f30710b001605b491,8120291,20,m,scaleresp,1,2,2,2,2,10,17,0,740,1575.625,0,,391042,0.0-143.0,html-slider-response,143,"<p style=font-size:16px; text-align:center;"">  How responsible do you feel concerning <br> the outcome ? </p>""",,08/05/2020,1.58892E+12,08/05/2020,1.58892E+12,
5cdf3e46bb4ac30001597901,5592673,23,M,scaleresp,15,2,1,2,1,3,4,,,,,,543804,0.0-12.0,html-slider-response,12,"<p style=font-size:16px; text-align:center;"">  How responsible do you feel concerning <br> the outcome ? </p>""",,08/05/2020,1.58892E+12,08/05/2020,1.58892E+12,
58da74c7f94de20001fbd4af,1598476,28,M,scaleresp,12,1,1,2,2,5,16,1,493,1585.9,56,,471771,0.0-148.0,html-slider-response,148,"<p style=font-size:16px; text-align:center;"">  How responsible do you feel concerning <br> the outcome ? </p>""",,08/05/2020,1.58892E+12,08/05/2020,1.58892E+12,
5d8edb6a999d520017b0a66b,3441247,33,M,scaleresp,10,1,1,2,1,9,12,0,976,2523.605,21,,405282,0.0-82.0,html-slider-response,82,"<p style=font-size:16px; text-align:center;"">  How responsible do you feel concerning <br> the outcome ? </p>""",,08/05/2020,1.58892E+12,08/05/2020,1.58892E+12,
5be42fd8d8f5470001f0d1cd,4568129,22,F,scaleresp,5,2,2,2,1,3,16,0,799,3562.215,61,,407220,0.0-102.0,html-slider-response,102,"<p style=font-size:16px; text-align:center;"">  How responsible do you feel concerning <br> the outcome ? </p>""",,08/05/2020,1.58892E+12,08/05/2020,1.58892E+12,
59da0b3103203500011acfec,2742857,31,F,scaleresp,16,1,1,1,1,2,17,1,896,2091.59,64,,344120,0.0-87.0,html-slider-response,87,"<p style=font-size:16px; text-align:center;"">  How responsible do you feel concerning <br> the outcome ? </p>""",,08/05/2020,1.58892E+12,08/05/2020,1.58892E+12,
57754d57ca706f000190eaf1,8231485,35,M,scaleresp,12,1,1,2,2,12,19,0,981,1318.9,82,,496311,0.0-163.0,html-slider-response,163,"<p style=font-size:16px; text-align:center;"">  How responsible do you feel concerning <br> the outcome ? </p>""",,08/05/2020,1.58892E+12,08/05/2020,1.58892E+12,
5c1920c45782120001f6beff,1629236,33,m,scaleresp,8,1,2,1,1,5,12,1,995,2617,56,,341871,0.0-107.0,html-slider-response,107,"<p style=font-size:16px; text-align:center;"">  How responsible do you feel concerning <br> the outcome ? </p>""",,08/05/2020,1.58892E+12,08/05/2020,1.58892E+12,
5e90a3ac672c833b91ddcd57,6904783,20,M,scaleresp,2,1,2,2,1,2,7,,,,,,126945,0.0-12.0,html-slider-response,12,"<p style=font-size:16px; text-align:center;"">  How responsible do you feel concerning <br> the outcome ? </p>""",,08/05/2020,1.58892E+12,08/05/2020,1.58892E+12,
5c4bb5a2620ba700010bf02b,1089596,18,M,scaleresp,9,2,2,1,2,1,2,0,433,1665.705,74,,385615,0.0-128.0,html-slider-response,128,"<p style=font-size:16px; text-align:center;"">  How responsible do you feel concerning <br> the outcome ? </p>""",,08/05/2020,1.58892E+12,08/05/2020,1.58892E+12,
5e2d52d7e1a0e73431c7dd06,6980585,21,M,scaleresp,13,2,1,2,1,8,16,,,,,,487453,0.0-47.0,html-slider-response,47,"<p style=font-size:16px; text-align:center;"">  How responsible do you feel concerning <br> the outcome ? </p>""",,08/05/2020,1.58892E+12,08/05/2020,1.58892E+12,
5be57da1f6b5dd0001170bbe,4467383,36,F,scaleresp,1,2,2,2,2,10,16,0,772,1750.96,42,,494061,0.0-203.0,html-slider-response,203,"<p style=font-size:16px; text-align:center;"">  How responsible do you feel concerning <br> the outcome ? </p>""",,08/05/2020,1.58892E+12,08/05/2020,1.58892E+12,
5a9844231eda4100013653a9,4761338,29,M,scaleresp,5,2,2,2,1,18,20,1,486,1681,63,,215529,0.0-57.0,html-slider-response,57,"<p style=font-size:16px; text-align:center;"">  How responsible do you feel concerning <br> the outcome ? </p>""",,08/05/2020,1.58892E+12,08/05/2020,1.58892E+12,
5ca59f9f30710b001605b491,8120291,20,m,scaleresp,3,2,2,2,2,11,14,0,781,1654.34,0,,402050,0.0-148.0,html-slider-response,148,"<p style=font-size:16px; text-align:center;"">  How responsible do you feel concerning <br> the outcome ? </p>""",,08/05/2020,1.58892E+12,08/05/2020,1.58892E+12,
58da74c7f94de20001fbd4af,1598476,28,M,scaleresp,9,2,2,1,2,4,6,1,1093,1533.3,57,,483463,0.0-153.0,html-slider-response,153,"<p style=font-size:16px; text-align:center;"">  How responsible do you feel concerning <br> the outcome ? </p>""",,08/05/2020,1.58892E+12,08/05/2020,1.58892E+12,
5d8edb6a999d520017b0a66b,3441247,33,M,scaleresp,6,1,2,1,1,6,19,1,1091,1730.51,0,,416888,0.0-87.0,html-slider-response,87,"<p style=font-size:16px; text-align:center;"">  How responsible do you feel concerning <br> the outcome ? </p>""",,08/05/2020,1.58892E+12,08/05/2020,1.58892E+12,
5cdf3e46bb4ac30001597901,5592673,23,M,scaleresp,7,2,2,1,1,5,12,0,992,3829.95,66,,557466,0.0-17.0,html-slider-response,17,"<p style=font-size:16px; text-align:center;"">  How responsible do you feel concerning <br> the outcome ? </p>""",,08/05/2020,1.58892E+12,08/05/2020,1.58892E+12,
59da0b3103203500011acfec,2742857,31,F,scaleresp,20,1,2,2,1,8,16,,,,,,354795,0.0-92.0,html-slider-response,92,"<p style=font-size:16px; text-align:center;"">  How responsible do you feel concerning <br> the outcome ? </p>""",,08/05/2020,1.58892E+12,08/05/2020,1.58892E+12,
5be42fd8d8f5470001f0d1cd,4568129,22,F,scaleresp,6,1,2,1,1,15,20,1,1126,3105.545,62,,420132,0.0-107.0,html-slider-response,107,"<p style=font-size:16px; text-align:center;"">  How responsible do you feel concerning <br> the outcome ? </p>""",,08/05/2020,1.58892E+12,08/05/2020,1.58892E+12,
57754d57ca706f000190eaf1,8231485,35,M,scaleresp,4,1,2,2,2,8,10,0,1084,1886.5,12,,508221,0.0-168.0,html-slider-response,168,"<p style=font-size:16px; text-align:center;"">  How responsible do you feel concerning <br> the outcome ? </p>""",,08/05/2020,1.58892E+12,08/05/2020,1.58892E+12,
5c1920c45782120001f6beff,1629236,33,m,scaleresp,7,2,2,1,2,7,15,0,815,1895,59,,354571,0.0-113.0,html-slider-response,113,"<p style=font-size:16px; text-align:center;"">  How responsible do you feel concerning <br> the outcome ? </p>""",,08/05/2020,1.58892E+12,08/05/2020,1.58892E+12,
5c4bb5a2620ba700010bf02b,1089596,18,M,scaleresp,20,1,2,2,2,6,7,1,809,1820.76,23,,397153,0.0-133.0,html-slider-response,133,"<p style=font-size:16px; text-align:center;"">  How responsible do you feel concerning <br> the outcome ? </p>""",,08/05/2020,1.58892E+12,08/05/2020,1.58892E+12,
5e2d52d7e1a0e73431c7dd06,6980585,21,M,scaleresp,12,1,1,2,1,7,16,,,,,,498394,0.0-52.0,html-slider-response,52,"<p style=font-size:16px; text-align:center;"">  How responsible do you feel concerning <br> the outcome ? </p>""",,08/05/2020,1.58892E+12,08/05/2020,1.58892E+12,
5e90a3ac672c833b91ddcd57,6904783,20,M,scaleresp,11,2,1,2,1,4,13,0,1409,4310.905,67,,141655,0.0-17.0,html-slider-response,17,"<p style=font-size:16px; text-align:center;"">  How responsible do you feel concerning <br> the outcome ? </p>""",,08/05/2020,1.58892E+12,08/05/2020,1.58892E+12,
5a9844231eda4100013653a9,4761338,29,M,scaleresp,8,1,2,1,1,15,19,0,473,1940,74,,226685,0.0-62.0,html-slider-response,62,"<p style=font-size:16px; text-align:center;"">  How responsible do you feel concerning <br> the outcome ? </p>""",,08/05/2020,1.58892E+12,08/05/2020,1.58892E+12,
5ca59f9f30710b001605b491,8120291,20,m,scaleresp,15,2,1,2,2,2,11,,,,,,413600,0.0-153.0,html-slider-response,153,"<p style=font-size:16px; text-align:center;"">  How responsible do you feel concerning <br> the outcome ? </p>""",,08/05/2020,1.58892E+12,08/05/2020,1.58892E+12,
58da74c7f94de20001fbd4af,1598476,28,M,scaleresp,18,1,1,1,2,19,20,1,546,1585.1,54,,494599,0.0-158.0,html-slider-response,158,"<p style=font-size:16px; text-align:center;"">  How responsible do you feel concerning <br> the outcome ? </p>""",,08/05/2020,1.58892E+12,08/05/2020,1.58892E+12,
5cdf3e46bb4ac30001597901,5592673,23,M,scaleresp,6,1,2,1,1,13,18,,,,,,568425,0.0-22.0,html-slider-response,22,"<p style=font-size:16px; text-align:center;"">  How responsible do you feel concerning <br> the outcome ? </p>""",,08/05/2020,1.58892E+12,08/05/2020,1.58892E+12,
5d8edb6a999d520017b0a66b,3441247,33,M,scaleresp,9,2,2,1,1,12,14,0,917,2804.79,0,,429303,0.0-92.0,html-slider-response,92,"<p style=font-size:16px; text-align:center;"">  How responsible do you feel concerning <br> the outcome ? </p>""",,08/05/2020,1.58892E+12,08/05/2020,1.58892E+12,
5e80c717770c43000b151225,8400571,22,F,scaleresp,10,1,1,2,1,5,8,,,,,,374763,0.0-12.0,html-slider-response,12,"<p style=font-size:16px; text-align:center;"">  How responsible do you feel concerning <br> the outcome ? </p>""",,08/05/2020,1.58892E+12,08/05/2020,1.58892E+12,
59da0b3103203500011acfec,2742857,31,F,scaleresp,14,1,1,2,1,3,6,0,1202,1790.935,30,,366505,0.0-97.0,html-slider-response,97,"<p style=font-size:16px; text-align:center;"">  How responsible do you feel concerning <br> the outcome ? </p>""",,08/05/2020,1.58892E+12,08/05/2020,1.58892E+12,
57754d57ca706f000190eaf1,8231485,35,M,scaleresp,14,1,1,2,2,1,18,1,930,2037.6,86,,520178,0.0-173.0,html-slider-response,173,"<p style=font-size:16px; text-align:center;"">  How responsible do you feel concerning <br> the outcome ? </p>""",,08/05/2020,1.58892E+12,08/05/2020,1.58892E+12,
5c1920c45782120001f6beff,1629236,33,m,scaleresp,15,2,1,2,2,11,15,1,960,1418,71,,365703,0.0-118.0,html-slider-response,118,"<p style=font-size:16px; text-align:center;"">  How responsible do you feel concerning <br> the outcome ? </p>""",,08/05/2020,1.58892E+12,08/05/2020,1.58892E+12,
5c4bb5a2620ba700010bf02b,1089596,18,M,scaleresp,14,1,1,2,2,4,7,0,348,1622.7,86,,407895,0.0-138.0,html-slider-response,138,"<p style=font-size:16px; text-align:center;"">  How responsible do you feel concerning <br> the outcome ? </p>""",,08/05/2020,1.58892E+12,08/05/2020,1.58892E+12,
5e2d52d7e1a0e73431c7dd06,6980585,21,M,scaleresp,1,2,2,2,1,2,9,,,,,,509217,0.0-57.0,html-slider-response,57,"<p style=font-size:16px; text-align:center;"">  How responsible do you feel concerning <br> the outcome ? </p>""",,08/05/2020,1.58892E+12,08/05/2020,1.58892E+12,
5be57da1f6b5dd0001170bbe,4467383,36,F,scaleresp,6,1,2,1,2,5,14,0,952,13103.93,59,,516741,0.0-208.0,html-slider-response,208,"<p style=font-size:16px; text-align:center;"">  How responsible do you feel concerning <br> the outcome ? </p>""",,08/05/2020,1.58892E+12,08/05/2020,1.58892E+12,
5be42fd8d8f5470001f0d1cd,4568129,22,F,scaleresp,13,2,1,2,2,3,8,0,1810,4070.105,53,,436405,0.0-113.0,html-slider-response,113,"<p style=font-size:16px; text-align:center;"">  How responsible do you feel concerning <br> the outcome ? </p>""",,08/05/2020,1.58892E+12,08/05/2020,1.58892E+12,
5e90a3ac672c833b91ddcd57,6904783,20,M,scaleresp,7,2,2,1,1,1,16,1,1168,2308.115,84,,153739,0.0-22.0,html-slider-response,22,"<p style=font-size:16px; text-align:center;"">  How responsible do you feel concerning <br> the outcome ? </p>""",,08/05/2020,1.58892E+12,08/05/2020,1.58892E+12,
5a9844231eda4100013653a9,4761338,29,M,scaleresp,20,1,2,2,1,3,11,1,711,2104,69,,238169,0.0-67.0,html-slider-response,67,"<p style=font-size:16px; text-align:center;"">  How responsible do you feel concerning <br> the outcome ? </p>""",,08/05/2020,1.58892E+12,08/05/2020,1.58892E+12,
5ca59f9f30710b001605b491,8120291,20,m,scaleresp,9,2,2,1,2,6,8,0,693,1529.795,0,,424954,0.0-158.0,html-slider-response,158,"<p style=font-size:16px; text-align:center;"">  How responsible do you feel concerning <br> the outcome ? </p>""",,08/05/2020,1.58892E+12,08/05/2020,1.58892E+12,
58da74c7f94de20001fbd4af,1598476,28,M,scaleresp,11,2,1,2,2,5,11,1,1021,1532.9,49,,505788,0.0-163.0,html-slider-response,163,"<p style=font-size:16px; text-align:center;"">  How responsible do you feel concerning <br> the outcome ? </p>""",,08/05/2020,1.58892E+12,08/05/2020,1.58892E+12,
5cdf3e46bb4ac30001597901,5592673,23,M,scaleresp,1,2,2,2,1,7,13,1,1257,2484.215,100,,581024,0.0-27.0,html-slider-response,27,"<p style=font-size:16px; text-align:center;"">  How responsible do you feel concerning <br> the outcome ? </p>""",,08/05/2020,1.58892E+12,08/05/2020,1.58892E+12,
5d8edb6a999d520017b0a66b,3441247,33,M,scaleresp,7,2,2,1,1,3,4,1,983,1908.49,9,,441040,0.0-97.0,html-slider-response,97,"<p style=font-size:16px; text-align:center;"">  How responsible do you feel concerning <br> the outcome ? </p>""",,08/05/2020,1.58892E+12,08/05/2020,1.58892E+12,
59da0b3103203500011acfec,2742857,31,F,scaleresp,6,1,2,1,1,8,11,0,1130,2564.785,58,,378952,0.0-102.0,html-slider-response,102,"<p style=font-size:16px; text-align:center;"">  How responsible do you feel concerning <br> the outcome ? </p>""",,08/05/2020,1.58892E+12,08/05/2020,1.58892E+12,
5c1920c45782120001f6beff,1629236,33,m,scaleresp,8,1,2,1,2,8,19,1,574,1185,57,,376237,0.0-123.0,html-slider-response,123,"<p style=font-size:16px; text-align:center;"">  How responsible do you feel concerning <br> the outcome ? </p>""",,08/05/2020,1.58892E+12,08/05/2020,1.58892E+12,
57754d57ca706f000190eaf1,8231485,35,M,scaleresp,3,2,2,2,2,2,4,0,1043,1731.1,67,,531559,0.0-178.0,html-slider-response,178,"<p style=font-size:16px; text-align:center;"">  How responsible do you feel concerning <br> the outcome ? </p>""",,08/05/2020,1.58892E+12,08/05/2020,1.58892E+12,
5c4bb5a2620ba700010bf02b,1089596,18,M,scaleresp,7,2,2,1,2,10,17,1,752,1938.915,71,,419414,0.0-143.0,html-slider-response,143,"<p style=font-size:16px; text-align:center;"">  How responsible do you feel concerning <br> the outcome ? </p>""",,08/05/2020,1.58892E+12,08/05/2020,1.58892E+12,
5e80c717770c43000b151225,8400571,22,F,scaleresp,1,2,2,2,1,5,11,0,1306,5082.035,100,,390057,0.0-17.0,html-slider-response,17,"<p style=font-size:16px; text-align:center;"">  How responsible do you feel concerning <br> the outcome ? </p>""",,08/05/2020,1.58892E+12,08/05/2020,1.58893E+12,
5e2d52d7e1a0e73431c7dd06,6980585,21,M,scaleresp,2,1,2,2,1,4,5,1,1324,3420.98,55,,522652,0.0-62.0,html-slider-response,62,"<p style=font-size:16px; text-align:center;"">  How responsible do you feel concerning <br> the outcome ? </p>""",,08/05/2020,1.58892E+12,08/05/2020,1.58892E+12,
5a9844231eda4100013653a9,4761338,29,M,scaleresp,15,2,1,2,1,18,19,1,454,1894,59,,249209,0.0-72.0,html-slider-response,72,"<p style=font-size:16px; text-align:center;"">  How responsible do you feel concerning <br> the outcome ? </p>""",,08/05/2020,1.58892E+12,08/05/2020,1.58892E+12,
5ca59f9f30710b001605b491,8120291,20,m,scaleresp,4,1,2,2,2,7,11,1,887,1574.625,0,,435944,0.0-163.0,html-slider-response,163,"<p style=font-size:16px; text-align:center;"">  How responsible do you feel concerning <br> the outcome ? </p>""",,08/05/2020,1.58892E+12,08/05/2020,1.58892E+12,
5be42fd8d8f5470001f0d1cd,4568129,22,F,scaleresp,7,2,2,1,2,12,14,1,788,2707.635,59,,448691,0.0-118.0,html-slider-response,118,"<p style=font-size:16px; text-align:center;"">  How responsible do you feel concerning <br> the outcome ? </p>""",,08/05/2020,1.58892E+12,08/05/2020,1.58892E+12,
5be57da1f6b5dd0001170bbe,4467383,36,F,scaleresp,19,2,1,1,3,12,14,0,904,1961.005,78,,530709,0.0-214.0,html-slider-response,214,"<p style=font-size:16px; text-align:center;"">  How responsible do you feel concerning <br> the outcome ? </p>""",,08/05/2020,1.58892E+12,08/05/2020,1.58892E+12,
58da74c7f94de20001fbd4af,1598476,28,M,scaleresp,2,1,2,2,2,2,11,1,976,1618.5,52,,517231,0.0-168.0,html-slider-response,168,"<p style=font-size:16px; text-align:center;"">  How responsible do you feel concerning <br> the outcome ? </p>""",,08/05/2020,1.58892E+12,08/05/2020,1.58892E+12,
5e90a3ac672c833b91ddcd57,6904783,20,M,scaleresp,16,1,1,1,1,4,15,0,1144,3956.005,65,,167524,0.0-27.0,html-slider-response,27,"<p style=font-size:16px; text-align:center;"">  How responsible do you feel concerning <br> the outcome ? </p>""",,08/05/2020,1.58892E+12,08/05/2020,1.58892E+12,
5bf9c3137618a60001608942,6212167,,,surveyid,,,,,,,,,,14678,,,27707,0.0-3.0,survey-text,3,,"{Q0"":""5bf9c3137618a60001608942""}""",08/05/2020,1.58892E+12,08/05/2020,1.58892E+12,
5cdf3e46bb4ac30001597901,5592673,23,M,scaleresp,19,2,1,1,1,4,19,0,832,2599.81,100,,593327,0.0-32.0,html-slider-response,32,"<p style=font-size:16px; text-align:center;"">  How responsible do you feel concerning <br> the outcome ? </p>""",,08/05/2020,1.58892E+12,08/05/2020,1.58892E+12,
5d8edb6a999d520017b0a66b,3441247,33,M,scaleresp,4,1,2,2,1,4,11,1,1274,2167.125,12,,453086,0.0-102.0,html-slider-response,102,"<p style=font-size:16px; text-align:center;"">  How responsible do you feel concerning <br> the outcome ? </p>""",,08/05/2020,1.58892E+12,08/05/2020,1.58892E+12,
59da0b3103203500011acfec,2742857,31,F,scaleresp,13,2,1,2,1,18,19,1,800,2286.79,59,,390803,0.0-107.0,html-slider-response,107,"<p style=font-size:16px; text-align:center;"">  How responsible do you feel concerning <br> the outcome ? </p>""",,08/05/2020,1.58892E+12,08/05/2020,1.58892E+12,
5c1920c45782120001f6beff,1629236,33,m,scaleresp,20,1,2,2,2,3,9,0,735,2057,70,,387870,0.0-128.0,html-slider-response,128,"<p style=font-size:16px; text-align:center;"">  How responsible do you feel concerning <br> the outcome ? </p>""",,08/05/2020,1.58892E+12,08/05/2020,1.58892E+12,
57754d57ca706f000190eaf1,8231485,35,M,scaleresp,8,1,2,1,2,4,13,0,944,1577.2,16,,543117,0.0-183.0,html-slider-response,183,"<p style=font-size:16px; text-align:center;"">  How responsible do you feel concerning <br> the outcome ? </p>""",,08/05/2020,1.58892E+12,08/05/2020,1.58892E+12,
5c4bb5a2620ba700010bf02b,1089596,18,M,scaleresp,19,2,1,1,2,2,17,0,954,1424.105,89,,430554,0.0-148.0,html-slider-response,148,"<p style=font-size:16px; text-align:center;"">  How responsible do you feel concerning <br> the outcome ? </p>""",,08/05/2020,1.58892E+12,08/05/2020,1.58892E+12,
5e80c717770c43000b151225,8400571,22,F,scaleresp,9,2,2,1,1,5,10,0,1226,3543.25,100,,403729,0.0-22.0,html-slider-response,22,"<p style=font-size:16px; text-align:center;"">  How responsible do you feel concerning <br> the outcome ? </p>""",,08/05/2020,1.58892E+12,08/05/2020,1.58893E+12,
5a9844231eda4100013653a9,4761338,29,M,scaleresp,3,2,2,2,1,6,18,0,442,1945,64,,260353,0.0-77.0,html-slider-response,77,"<p style=font-size:16px; text-align:center;"">  How responsible do you feel concerning <br> the outcome ? </p>""",,08/05/2020,1.58892E+12,08/05/2020,1.58892E+12,
5bf9c3137618a60001608942,6212167,27,M,survey,,,,,,,,,,7389,,,35099,0.0-4.0,survey-text,4,,"{Q0"":""27""","Q1:""M""}""",08/05/2020,1.58892E+12,08/05/2020,1.58892E+12
5be42fd8d8f5470001f0d1cd,4568129,22,F,scaleresp,16,1,1,1,2,5,17,0,736,2160.2,57,,460621,0.0-123.0,html-slider-response,123,"<p style=font-size:16px; text-align:center;"">  How responsible do you feel concerning <br> the outcome ? </p>""",,08/05/2020,1.58892E+12,08/05/2020,1.58892E+12,
5ca59f9f30710b001605b491,8120291,20,m,scaleresp,13,2,1,2,2,1,3,0,1053,1866.11,0,,447584,0.0-168.0,html-slider-response,168,"<p style=font-size:16px; text-align:center;"">  How responsible do you feel concerning <br> the outcome ? </p>""",,08/05/2020,1.58892E+12,08/05/2020,1.58892E+12,
5be57da1f6b5dd0001170bbe,4467383,36,F,scaleresp,16,1,1,1,3,7,14,0,915,1755.51,68,,542173,0.0-219.0,html-slider-response,219,"<p style=font-size:16px; text-align:center;"">  How responsible do you feel concerning <br> the outcome ? </p>""",,08/05/2020,1.58892E+12,08/05/2020,1.58892E+12,
58da74c7f94de20001fbd4af,1598476,28,M,scaleresp,20,1,2,2,2,3,17,1,697,2130.4,48,,528732,0.0-173.0,html-slider-response,173,"<p style=font-size:16px; text-align:center;"">  How responsible do you feel concerning <br> the outcome ? </p>""",,08/05/2020,1.58892E+12,08/05/2020,1.58892E+12,
5e2d52d7e1a0e73431c7dd06,6980585,21,M,scaleresp,3,2,2,2,1,10,19,0,1070,4267.315,55,,537638,0.0-67.0,html-slider-response,67,"<p style=font-size:16px; text-align:center;"">  How responsible do you feel concerning <br> the outcome ? </p>""",,08/05/2020,1.58892E+12,08/05/2020,1.58892E+12,
5e90a3ac672c833b91ddcd57,6904783,20,M,scaleresp,13,2,1,2,1,6,11,1,1125,3274.385,58,,180864,0.0-32.0,html-slider-response,32,"<p style=font-size:16px; text-align:center;"">  How responsible do you feel concerning <br> the outcome ? </p>""",,08/05/2020,1.58892E+12,08/05/2020,1.58892E+12,
5d8edb6a999d520017b0a66b,3441247,33,M,scaleresp,20,1,2,2,1,11,15,0,637,2404.975,14,,465011,0.0-107.0,html-slider-response,107,"<p style=font-size:16px; text-align:center;"">  How responsible do you feel concerning <br> the outcome ? </p>""",,08/05/2020,1.58892E+12,08/05/2020,1.58892E+12,
5cdf3e46bb4ac30001597901,5592673,23,M,scaleresp,5,2,2,2,1,2,17,1,1393,2486.405,77,,606171,0.0-37.0,html-slider-response,37,"<p style=font-size:16px; text-align:center;"">  How responsible do you feel concerning <br> the outcome ? </p>""",,08/05/2020,1.58892E+12,08/05/2020,1.58892E+12,
5c1920c45782120001f6beff,1629236,33,m,scaleresp,4,1,2,2,2,5,7,1,756,1691,62,,399036,0.0-133.0,html-slider-response,133,"<p style=font-size:16px; text-align:center;"">  How responsible do you feel concerning <br> the outcome ? </p>""",,08/05/2020,1.58892E+12,08/05/2020,1.58892E+12,
5c4bb5a2620ba700010bf02b,1089596,18,M,scaleresp,2,1,2,2,2,16,18,1,601,1873.935,4,,441843,0.0-153.0,html-slider-response,153,"<p style=font-size:16px; text-align:center;"">  How responsible do you feel concerning <br> the outcome ? </p>""",,08/05/2020,1.58892E+12,08/05/2020,1.58892E+12,
57754d57ca706f000190eaf1,8231485,35,M,scaleresp,17,2,1,1,2,5,11,0,1860,1965.2,19,,555536,0.0-188.0,html-slider-response,188,"<p style=font-size:16px; text-align:center;"">  How responsible do you feel concerning <br> the outcome ? </p>""",,08/05/2020,1.58892E+12,08/05/2020,1.58892E+12,
5a9844231eda4100013653a9,4761338,29,M,scaleresp,16,1,1,1,1,1,14,1,523,2340,65,,271889,0.0-82.0,html-slider-response,82,"<p style=font-size:16px; text-align:center;"">  How responsible do you feel concerning <br> the outcome ? </p>""",,08/05/2020,1.58892E+12,08/05/2020,1.58892E+12,
5ca59f9f30710b001605b491,8120291,20,m,scaleresp,19,2,1,1,2,7,17,0,863,1375.28,0,,458431,0.0-173.0,html-slider-response,173,"<p style=font-size:16px; text-align:center;"">  How responsible do you feel concerning <br> the outcome ? </p>""",,08/05/2020,1.58892E+12,08/05/2020,1.58892E+12,
5be57da1f6b5dd0001170bbe,4467383,36,F,scaleresp,20,1,2,2,3,2,19,0,533,1649.15,42,,552956,0.0-224.0,html-slider-response,224,"<p style=font-size:16px; text-align:center;"">  How responsible do you feel concerning <br> the outcome ? </p>""",,08/05/2020,1.58892E+12,08/05/2020,1.58892E+12,
5e80c717770c43000b151225,8400571,22,F,scaleresp,7,2,2,1,1,3,15,0,1234,2628.125,99,,416215,0.0-27.0,html-slider-response,27,"<p style=font-size:16px; text-align:center;"">  How responsible do you feel concerning <br> the outcome ? </p>""",,08/05/2020,1.58892E+12,08/05/2020,1.58893E+12,
5be42fd8d8f5470001f0d1cd,4568129,22,F,scaleresp,9,2,2,1,2,7,19,0,795,2723.46,57,,472815,0.0-128.0,html-slider-response,128,"<p style=font-size:16px; text-align:center;"">  How responsible do you feel concerning <br> the outcome ? </p>""",,08/05/2020,1.58892E+12,08/05/2020,1.58892E+12,
58da74c7f94de20001fbd4af,1598476,28,M,scaleresp,4,1,2,2,2,7,14,1,551,1311.6,54,,539538,0.0-178.0,html-slider-response,178,"<p style=font-size:16px; text-align:center;"">  How responsible do you feel concerning <br> the outcome ? </p>""",,08/05/2020,1.58892E+12,08/05/2020,1.58892E+12,
5e90a3ac672c833b91ddcd57,6904783,20,M,scaleresp,19,2,1,1,1,4,19,0,675,2310.9,79,,192484,0.0-37.0,html-slider-response,37,"<p style=font-size:16px; text-align:center;"">  How responsible do you feel concerning <br> the outcome ? </p>""",,08/05/2020,1.58892E+12,08/05/2020,1.58892E+12,
