prolificid,subject_id,age,gender,label,trialnum,status,outcome,getsout,bloc,img1,img2,buttonchoice,rtchoice,rt,response,key_press,time_elapsed,internal_node_id,trial_type,trial_index,stimulus,responses,date,time,datefinish,timefinish,
5c73e8a67fafbd001147187b,9797764,,,surveyid,,,,,,,,,,3850,,,21510,0.0-3.0,survey-text,3,,"{Q0"":""5c73e8a67fafbd001147187b""}""",04/05/2020,1.59E+12,04/05/2020,1.59E+12,
5dadad152e8c52001757fbe6,4382999,,,surveyid,,,,,,,,,,3858,,,29888,0.0-3.0,survey-text,3,,"{Q0"":""5dadad152e8c52001757fbe6""}""",04/05/2020,1.59E+12,04/05/2020,1.59E+12,
5dadad152e8c52001757fbe6,4382999,20,F,survey,,,,,,,,,,4844,,,34741,0.0-4.0,survey-text,4,,"{Q0"":""20""","Q1:""F""}""",04/05/2020,1.59E+12,04/05/2020,1.59E+12
5c73e8a67fafbd001147187b,9797764,38,M,survey,,,,,,,,,,9749,,,31265,0.0-4.0,survey-text,4,,"{Q0"":""38""","Q1:""M""}""",04/05/2020,1.59E+12,04/05/2020,1.59E+12
5e64a832757e6121f493724c,7348245,,,surveyid,,,,,,,,,,19528,,,71605,0.0-3.0,survey-text,3,,"{Q0"":""5e64a832757e6121f493724c""}""",04/05/2020,1.59E+12,04/05/2020,1.59E+12,
5e64a832757e6121f493724c,7348245,19,M,survey,,,,,,,,,,9462,,,81075,0.0-4.0,survey-text,4,,"{Q0"":""19""","Q1:""M""}""",04/05/2020,1.59E+12,04/05/2020,1.59E+12
5dadad152e8c52001757fbe6,4382999,20,F,scaleresp,8,1,2,1,1,10,12,,,,,,120126,0.0-12.0,html-slider-response,12,"<p style=font-size:16px; text-align:center;"">  How responsible do you feel concerning <br> the outcome ? </p>""",,04/05/2020,1.59E+12,04/05/2020,1.59E+12,
5dadad152e8c52001757fbe6,4382999,20,F,scaleresp,19,2,1,1,1,8,10,0,594,4696.81,56,,134443,0.0-17.0,html-slider-response,17,"<p style=font-size:16px; text-align:center;"">  How responsible do you feel concerning <br> the outcome ? </p>""",,04/05/2020,1.59E+12,04/05/2020,1.59E+12,
5dadad152e8c52001757fbe6,4382999,20,F,scaleresp,17,2,1,1,1,15,19,0,686,3823.685,63,,147677,0.0-22.0,html-slider-response,22,"<p style=font-size:16px; text-align:center;"">  How responsible do you feel concerning <br> the outcome ? </p>""",,04/05/2020,1.59E+12,04/05/2020,1.59E+12,
5dadad152e8c52001757fbe6,4382999,20,F,scaleresp,16,1,1,1,1,4,14,1,1017,3169.985,23,,160642,0.0-27.0,html-slider-response,27,"<p style=font-size:16px; text-align:center;"">  How responsible do you feel concerning <br> the outcome ? </p>""",,04/05/2020,1.59E+12,04/05/2020,1.59E+12,
5dadad152e8c52001757fbe6,4382999,20,F,scaleresp,9,2,2,1,1,17,18,0,633,2421.99,26,,172224,0.0-32.0,html-slider-response,32,"<p style=font-size:16px; text-align:center;"">  How responsible do you feel concerning <br> the outcome ? </p>""",,04/05/2020,1.59E+12,04/05/2020,1.59E+12,
5dadad152e8c52001757fbe6,4382999,20,F,scaleresp,12,1,1,2,1,4,5,1,597,2907.075,21,,184637,0.0-37.0,html-slider-response,37,"<p style=font-size:16px; text-align:center;"">  How responsible do you feel concerning <br> the outcome ? </p>""",,04/05/2020,1.59E+12,04/05/2020,1.59E+12,
5c73e8a67fafbd001147187b,9797764,38,M,scaleresp,11,2,1,2,1,3,10,,,,,,179762,0.0-12.0,html-slider-response,12,"<p style=font-size:16px; text-align:center;"">  How responsible do you feel concerning <br> the outcome ? </p>""",,04/05/2020,1.59E+12,04/05/2020,1.59E+12,
5dadad152e8c52001757fbe6,4382999,20,F,scaleresp,11,2,1,2,1,4,16,0,1001,3031.195,15,,197696,0.0-42.0,html-slider-response,42,"<p style=font-size:16px; text-align:center;"">  How responsible do you feel concerning <br> the outcome ? </p>""",,04/05/2020,1.59E+12,04/05/2020,1.59E+12,
5c73e8a67fafbd001147187b,9797764,38,M,scaleresp,5,2,2,2,1,5,10,0,1160,4710,26,,194288,0.0-17.0,html-slider-response,17,"<p style=font-size:16px; text-align:center;"">  How responsible do you feel concerning <br> the outcome ? </p>""",,04/05/2020,1.59E+12,04/05/2020,1.59E+12,
5dadad152e8c52001757fbe6,4382999,20,F,scaleresp,10,1,1,2,1,1,6,1,417,2827.235,63,,209683,0.0-47.0,html-slider-response,47,"<p style=font-size:16px; text-align:center;"">  How responsible do you feel concerning <br> the outcome ? </p>""",,04/05/2020,1.59E+12,04/05/2020,1.59E+12,
5c73e8a67fafbd001147187b,9797764,38,M,scaleresp,14,1,1,2,1,4,9,1,1373,3276,48,,207943,0.0-22.0,html-slider-response,22,"<p style=font-size:16px; text-align:center;"">  How responsible do you feel concerning <br> the outcome ? </p>""",,04/05/2020,1.59E+12,04/05/2020,1.59E+12,
5ad8c254c0332a0001ec703c,7529639,,,surveyid,,,,,,,,,,2391,,,28246,0.0-3.0,survey-text,3,,"{Q0"":""5ad8c254c0332a0001ec703c""}""",04/05/2020,1.59E+12,04/05/2020,1.59E+12,
5dadad152e8c52001757fbe6,4382999,20,F,scaleresp,18,1,1,1,1,12,15,0,856,2083.165,68,,221413,0.0-52.0,html-slider-response,52,"<p style=font-size:16px; text-align:center;"">  How responsible do you feel concerning <br> the outcome ? </p>""",,04/05/2020,1.59E+12,04/05/2020,1.59E+12,
5ad8c254c0332a0001ec703c,7529639,26,F,survey,,,,,,,,,,5043,,,33292,0.0-4.0,survey-text,4,,"{Q0"":""26""","Q1:""F""}""",04/05/2020,1.59E+12,04/05/2020,1.59E+12
5c5ab546903c7700010a4518,8042707,,,surveyid,,,,,,,,,,3998,,,31831,0.0-3.0,survey-text,3,,"{Q0"":""5c5ab546903c7700010a4518""}""",04/05/2020,1.59E+12,04/05/2020,1.59E+12,
5c73e8a67fafbd001147187b,9797764,38,M,scaleresp,8,1,2,1,1,9,18,0,1094,2319,49,,220193,0.0-27.0,html-slider-response,27,"<p style=font-size:16px; text-align:center;"">  How responsible do you feel concerning <br> the outcome ? </p>""",,04/05/2020,1.59E+12,04/05/2020,1.59E+12,
5dadad152e8c52001757fbe6,4382999,20,F,scaleresp,2,1,2,2,1,2,10,1,697,2426.01,31,,233499,0.0-57.0,html-slider-response,57,"<p style=font-size:16px; text-align:center;"">  How responsible do you feel concerning <br> the outcome ? </p>""",,04/05/2020,1.59E+12,04/05/2020,1.59E+12,
5c5ab546903c7700010a4518,8042707,27,F,survey,,,,,,,,,,7259,,,39095,0.0-4.0,survey-text,4,,"{Q0"":""27""","Q1:""F""}""",04/05/2020,1.59E+12,04/05/2020,1.59E+12
5c73e8a67fafbd001147187b,9797764,38,M,scaleresp,10,1,1,2,1,5,13,1,998,2384,49,,232501,0.0-32.0,html-slider-response,32,"<p style=font-size:16px; text-align:center;"">  How responsible do you feel concerning <br> the outcome ? </p>""",,04/05/2020,1.59E+12,04/05/2020,1.59E+12,
5dadad152e8c52001757fbe6,4382999,20,F,scaleresp,7,2,2,1,1,18,19,0,763,2118.59,67,,245399,0.0-62.0,html-slider-response,62,"<p style=font-size:16px; text-align:center;"">  How responsible do you feel concerning <br> the outcome ? </p>""",,04/05/2020,1.59E+12,04/05/2020,1.59E+12,
5c73e8a67fafbd001147187b,9797764,38,M,scaleresp,6,1,2,1,1,1,10,0,1010,3773,48,,246272,0.0-37.0,html-slider-response,37,"<p style=font-size:16px; text-align:center;"">  How responsible do you feel concerning <br> the outcome ? </p>""",,04/05/2020,1.59E+12,04/05/2020,1.59E+12,
5dadad152e8c52001757fbe6,4382999,20,F,scaleresp,15,2,1,2,1,7,20,1,403,2326.985,67,,256783,0.0-67.0,html-slider-response,67,"<p style=font-size:16px; text-align:center;"">  How responsible do you feel concerning <br> the outcome ? </p>""",,04/05/2020,1.59E+12,04/05/2020,1.59E+12,
5c73e8a67fafbd001147187b,9797764,38,M,scaleresp,15,2,1,2,1,9,12,1,1053,1963,49,,258200,0.0-42.0,html-slider-response,42,"<p style=font-size:16px; text-align:center;"">  How responsible do you feel concerning <br> the outcome ? </p>""",,04/05/2020,1.59E+12,04/05/2020,1.59E+12,
5dadad152e8c52001757fbe6,4382999,20,F,scaleresp,13,2,1,2,1,9,10,0,500,2435.125,63,,268629,0.0-72.0,html-slider-response,72,"<p style=font-size:16px; text-align:center;"">  How responsible do you feel concerning <br> the outcome ? </p>""",,04/05/2020,1.59E+12,04/05/2020,1.59E+12,
5c73e8a67fafbd001147187b,9797764,38,M,scaleresp,18,1,1,1,1,9,17,0,941,3455,49,,271528,0.0-47.0,html-slider-response,47,"<p style=font-size:16px; text-align:center;"">  How responsible do you feel concerning <br> the outcome ? </p>""",,04/05/2020,1.59E+12,04/05/2020,1.59E+12,
5dadad152e8c52001757fbe6,4382999,20,F,scaleresp,14,1,1,2,1,1,12,0,642,2168.605,32,,280231,0.0-77.0,html-slider-response,77,"<p style=font-size:16px; text-align:center;"">  How responsible do you feel concerning <br> the outcome ? </p>""",,04/05/2020,1.59E+12,04/05/2020,1.59E+12,
5c73e8a67fafbd001147187b,9797764,38,M,scaleresp,1,2,2,2,1,10,11,1,1032,2897,51,,284342,0.0-52.0,html-slider-response,52,"<p style=font-size:16px; text-align:center;"">  How responsible do you feel concerning <br> the outcome ? </p>""",,04/05/2020,1.59E+12,04/05/2020,1.59E+12,
5dadad152e8c52001757fbe6,4382999,20,F,scaleresp,4,1,2,2,1,7,12,1,574,2608.85,30,,292317,0.0-82.0,html-slider-response,82,"<p style=font-size:16px; text-align:center;"">  How responsible do you feel concerning <br> the outcome ? </p>""",,04/05/2020,1.59E+12,04/05/2020,1.59E+12,
5dadad152e8c52001757fbe6,4382999,20,F,scaleresp,20,1,2,2,1,9,20,0,755,1764.59,34,,303667,0.0-87.0,html-slider-response,87,"<p style=font-size:16px; text-align:center;"">  How responsible do you feel concerning <br> the outcome ? </p>""",,04/05/2020,1.59E+12,04/05/2020,1.59E+12,
5c73e8a67fafbd001147187b,9797764,38,M,scaleresp,4,1,2,2,1,2,9,1,931,2866,52,,296774,0.0-57.0,html-slider-response,57,"<p style=font-size:16px; text-align:center;"">  How responsible do you feel concerning <br> the outcome ? </p>""",,04/05/2020,1.59E+12,04/05/2020,1.59E+12,
5c5ab546903c7700010a4518,8042707,27,F,scaleresp,18,1,1,1,1,9,16,,,,,,116547,0.0-12.0,html-slider-response,12,"<p style=font-size:16px; text-align:center;"">  How responsible do you feel concerning <br> the outcome ? </p>""",,04/05/2020,1.59E+12,04/05/2020,1.59E+12,
5dadad152e8c52001757fbe6,4382999,20,F,scaleresp,3,2,2,2,1,12,19,1,921,1832.06,37,,315247,0.0-92.0,html-slider-response,92,"<p style=font-size:16px; text-align:center;"">  How responsible do you feel concerning <br> the outcome ? </p>""",,04/05/2020,1.59E+12,04/05/2020,1.59E+12,
5c73e8a67fafbd001147187b,9797764,38,M,scaleresp,12,1,1,2,1,8,20,0,991,2495,53,,309000,0.0-62.0,html-slider-response,62,"<p style=font-size:16px; text-align:center;"">  How responsible do you feel concerning <br> the outcome ? </p>""",,04/05/2020,1.59E+12,04/05/2020,1.59E+12,
5c5ab546903c7700010a4518,8042707,27,F,scaleresp,1,2,2,2,1,13,15,0,1957,2461.225,57,,129863,0.0-17.0,html-slider-response,17,"<p style=font-size:16px; text-align:center;"">  How responsible do you feel concerning <br> the outcome ? </p>""",,04/05/2020,1.59E+12,04/05/2020,1.59E+12,
5dadad152e8c52001757fbe6,4382999,20,F,scaleresp,1,2,2,2,1,7,8,0,560,2389.795,31,,327073,0.0-97.0,html-slider-response,97,"<p style=font-size:16px; text-align:center;"">  How responsible do you feel concerning <br> the outcome ? </p>""",,04/05/2020,1.59E+12,04/05/2020,1.59E+12,
5e64a832757e6121f493724c,7348245,19,M,scaleresp,17,2,1,1,1,10,13,,,,,,300382,0.0-12.0,html-slider-response,12,"<p style=font-size:16px; text-align:center;"">  How responsible do you feel concerning <br> the outcome ? </p>""",,04/05/2020,1.59E+12,04/05/2020,1.59E+12,
5c73e8a67fafbd001147187b,9797764,38,M,scaleresp,3,2,2,2,1,9,10,1,1030,2370,52,,321087,0.0-67.0,html-slider-response,67,"<p style=font-size:16px; text-align:center;"">  How responsible do you feel concerning <br> the outcome ? </p>""",,04/05/2020,1.59E+12,04/05/2020,1.59E+12,
5dadad152e8c52001757fbe6,4382999,20,F,scaleresp,6,1,2,1,1,6,19,1,576,2237.46,23,,338721,0.0-102.0,html-slider-response,102,"<p style=font-size:16px; text-align:center;"">  How responsible do you feel concerning <br> the outcome ? </p>""",,04/05/2020,1.59E+12,04/05/2020,1.59E+12,
5e64a832757e6121f493724c,7348245,19,M,scaleresp,2,1,2,2,1,11,12,,,,,,311170,0.0-17.0,html-slider-response,17,"<p style=font-size:16px; text-align:center;"">  How responsible do you feel concerning <br> the outcome ? </p>""",,04/05/2020,1.59E+12,04/05/2020,1.59E+12,
5c5ab546903c7700010a4518,8042707,27,F,scaleresp,7,2,2,1,1,2,14,0,1131,4197.505,79,,143839,0.0-22.0,html-slider-response,22,"<p style=font-size:16px; text-align:center;"">  How responsible do you feel concerning <br> the outcome ? </p>""",,04/05/2020,1.59E+12,04/05/2020,1.59E+12,
5c73e8a67fafbd001147187b,9797764,38,M,scaleresp,17,2,1,1,1,14,18,1,976,3484,53,,334562,0.0-72.0,html-slider-response,72,"<p style=font-size:16px; text-align:center;"">  How responsible do you feel concerning <br> the outcome ? </p>""",,04/05/2020,1.59E+12,04/05/2020,1.59E+12,
5dadad152e8c52001757fbe6,4382999,20,F,scaleresp,5,2,2,2,1,2,14,0,752,1735.705,77,,349744,0.0-107.0,html-slider-response,107,"<p style=font-size:16px; text-align:center;"">  How responsible do you feel concerning <br> the outcome ? </p>""",,04/05/2020,1.59E+12,04/05/2020,1.59E+12,
5c5ab546903c7700010a4518,8042707,27,F,scaleresp,13,2,1,2,1,10,12,1,1375,2663.7,100,,156855,0.0-27.0,html-slider-response,27,"<p style=font-size:16px; text-align:center;"">  How responsible do you feel concerning <br> the outcome ? </p>""",,04/05/2020,1.59E+12,04/05/2020,1.59E+12,
5e64a832757e6121f493724c,7348245,19,M,scaleresp,3,2,2,2,1,10,15,0,779,3726,7,,324692,0.0-22.0,html-slider-response,22,"<p style=font-size:16px; text-align:center;"">  How responsible do you feel concerning <br> the outcome ? </p>""",,04/05/2020,1.59E+12,04/05/2020,1.59E+12,
5c73e8a67fafbd001147187b,9797764,38,M,scaleresp,20,1,2,2,1,2,11,0,1033,2651,53,,346837,0.0-77.0,html-slider-response,77,"<p style=font-size:16px; text-align:center;"">  How responsible do you feel concerning <br> the outcome ? </p>""",,04/05/2020,1.59E+12,04/05/2020,1.59E+12,
5e64a832757e6121f493724c,7348245,19,M,scaleresp,13,2,1,2,1,5,7,1,836,2312,51,,336516,0.0-27.0,html-slider-response,27,"<p style=font-size:16px; text-align:center;"">  How responsible do you feel concerning <br> the outcome ? </p>""",,04/05/2020,1.59E+12,04/05/2020,1.59E+12,
5c5ab546903c7700010a4518,8042707,27,F,scaleresp,11,2,1,2,1,1,2,0,1275,2439.575,34,,169591,0.0-32.0,html-slider-response,32,"<p style=font-size:16px; text-align:center;"">  How responsible do you feel concerning <br> the outcome ? </p>""",,04/05/2020,1.59E+12,04/05/2020,1.59E+12,
5c73e8a67fafbd001147187b,9797764,38,M,scaleresp,19,2,1,1,1,15,20,0,1030,2084,55,,358591,0.0-82.0,html-slider-response,82,"<p style=font-size:16px; text-align:center;"">  How responsible do you feel concerning <br> the outcome ? </p>""",,04/05/2020,1.59E+12,04/05/2020,1.59E+12,
5ad8c254c0332a0001ec703c,7529639,26,F,scaleresp,15,2,1,2,1,7,14,0,1843,5205.63,85,,186615,0.0-12.0,html-slider-response,12,"<p style=font-size:16px; text-align:center;"">  How responsible do you feel concerning <br> the outcome ? </p>""",,04/05/2020,1.59E+12,04/05/2020,1.59E+12,
5e64a832757e6121f493724c,7348245,19,M,scaleresp,15,2,1,2,1,17,18,1,969,1534,100,,347707,0.0-32.0,html-slider-response,32,"<p style=font-size:16px; text-align:center;"">  How responsible do you feel concerning <br> the outcome ? </p>""",,04/05/2020,1.59E+12,04/05/2020,1.59E+12,
5c5ab546903c7700010a4518,8042707,27,F,scaleresp,14,1,1,2,1,1,12,1,1176,2209.345,56,,181751,0.0-37.0,html-slider-response,37,"<p style=font-size:16px; text-align:center;"">  How responsible do you feel concerning <br> the outcome ? </p>""",,04/05/2020,1.59E+12,04/05/2020,1.59E+12,
5c73e8a67fafbd001147187b,9797764,38,M,scaleresp,13,2,1,2,1,6,10,0,1091,3202,52,,371759,0.0-87.0,html-slider-response,87,"<p style=font-size:16px; text-align:center;"">  How responsible do you feel concerning <br> the outcome ? </p>""",,04/05/2020,1.59E+12,04/05/2020,1.59E+12,
5e64a832757e6121f493724c,7348245,19,M,scaleresp,11,2,1,2,1,8,18,0,929,2032,82,,359515,0.0-37.0,html-slider-response,37,"<p style=font-size:16px; text-align:center;"">  How responsible do you feel concerning <br> the outcome ? </p>""",,04/05/2020,1.59E+12,04/05/2020,1.59E+12,
5ad8c254c0332a0001ec703c,7529639,26,F,scaleresp,8,1,2,1,1,10,16,1,1983,2803.05,46,,200096,0.0-17.0,html-slider-response,17,"<p style=font-size:16px; text-align:center;"">  How responsible do you feel concerning <br> the outcome ? </p>""",,04/05/2020,1.59E+12,04/05/2020,1.59E+12,
5c5ab546903c7700010a4518,8042707,27,F,scaleresp,5,2,2,2,1,6,16,1,1107,3762.73,18,,195487,0.0-42.0,html-slider-response,42,"<p style=font-size:16px; text-align:center;"">  How responsible do you feel concerning <br> the outcome ? </p>""",,04/05/2020,1.59E+12,04/05/2020,1.59E+12,
5c73e8a67fafbd001147187b,9797764,38,M,scaleresp,9,2,2,1,1,4,20,1,1099,1985,52,,383587,0.0-92.0,html-slider-response,92,"<p style=font-size:16px; text-align:center;"">  How responsible do you feel concerning <br> the outcome ? </p>""",,04/05/2020,1.59E+12,04/05/2020,1.59E+12,
5e64a832757e6121f493724c,7348245,19,M,scaleresp,10,1,1,2,1,1,18,0,1497,2352,69,,372076,0.0-42.0,html-slider-response,42,"<p style=font-size:16px; text-align:center;"">  How responsible do you feel concerning <br> the outcome ? </p>""",,04/05/2020,1.59E+12,04/05/2020,1.59E+12,
5ad8c254c0332a0001ec703c,7529639,26,F,scaleresp,16,1,1,1,1,9,11,1,1593,3176.915,70,,213797,0.0-22.0,html-slider-response,22,"<p style=font-size:16px; text-align:center;"">  How responsible do you feel concerning <br> the outcome ? </p>""",,04/05/2020,1.59E+12,04/05/2020,1.59E+12,
5c5ab546903c7700010a4518,8042707,27,F,scaleresp,3,2,2,2,1,7,14,0,1141,2098.99,35,,207671,0.0-47.0,html-slider-response,47,"<p style=font-size:16px; text-align:center;"">  How responsible do you feel concerning <br> the outcome ? </p>""",,04/05/2020,1.59E+12,04/05/2020,1.59E+12,
5c73e8a67fafbd001147187b,9797764,38,M,scaleresp,16,1,1,1,1,13,17,1,895,2636,54,,395941,0.0-97.0,html-slider-response,97,"<p style=font-size:16px; text-align:center;"">  How responsible do you feel concerning <br> the outcome ? </p>""",,04/05/2020,1.59E+12,04/05/2020,1.59E+12,
5e64a832757e6121f493724c,7348245,19,M,scaleresp,18,1,1,1,1,11,16,1,959,2902,100,,384555,0.0-47.0,html-slider-response,47,"<p style=font-size:16px; text-align:center;"">  How responsible do you feel concerning <br> the outcome ? </p>""",,04/05/2020,1.59E+12,04/05/2020,1.59E+12,
5ad8c254c0332a0001ec703c,7529639,26,F,scaleresp,13,2,1,2,1,1,4,1,1325,2079.3,72,,226192,0.0-27.0,html-slider-response,27,"<p style=font-size:16px; text-align:center;"">  How responsible do you feel concerning <br> the outcome ? </p>""",,04/05/2020,1.59E+12,04/05/2020,1.59E+12,
5c5ab546903c7700010a4518,8042707,27,F,scaleresp,16,1,1,1,1,6,12,1,1204,1829.205,57,,219456,0.0-52.0,html-slider-response,52,"<p style=font-size:16px; text-align:center;"">  How responsible do you feel concerning <br> the outcome ? </p>""",,04/05/2020,1.59E+12,04/05/2020,1.59E+12,
5c73e8a67fafbd001147187b,9797764,38,M,scaleresp,2,1,2,2,1,8,9,1,927,2083,54,,407649,0.0-102.0,html-slider-response,102,"<p style=font-size:16px; text-align:center;"">  How responsible do you feel concerning <br> the outcome ? </p>""",,04/05/2020,1.59E+12,04/05/2020,1.59E+12,
5e64a832757e6121f493724c,7348245,19,M,scaleresp,20,1,2,2,1,11,20,1,1128,1940,100,,396594,0.0-52.0,html-slider-response,52,"<p style=font-size:16px; text-align:center;"">  How responsible do you feel concerning <br> the outcome ? </p>""",,04/05/2020,1.59E+12,04/05/2020,1.59E+12,
5ad8c254c0332a0001ec703c,7529639,26,F,scaleresp,12,1,1,2,1,3,10,0,1579,1617.98,71,,237995,0.0-32.0,html-slider-response,32,"<p style=font-size:16px; text-align:center;"">  How responsible do you feel concerning <br> the outcome ? </p>""",,04/05/2020,1.59E+12,04/05/2020,1.59E+12,
5c5ab546903c7700010a4518,8042707,27,F,scaleresp,6,1,2,1,1,5,17,0,1232,1863.67,64,,231463,0.0-57.0,html-slider-response,57,"<p style=font-size:16px; text-align:center;"">  How responsible do you feel concerning <br> the outcome ? </p>""",,04/05/2020,1.59E+12,04/05/2020,1.59E+12,
5c73e8a67fafbd001147187b,9797764,38,M,scaleresp,7,2,2,1,1,7,9,0,980,2258,53,,419775,0.0-107.0,html-slider-response,107,"<p style=font-size:16px; text-align:center;"">  How responsible do you feel concerning <br> the outcome ? </p>""",,04/05/2020,1.59E+12,04/05/2020,1.59E+12,
57aaf19dec792e000181d028,3977321,,,surveyid,,,,,,,,,,11407,,,23887,0.0-3.0,survey-text,3,,"{Q0"":""https://www.ucl.ac.uk/icn-crowd-cognition/Marwa/ATTRRESPexp/runnssresp.html""}""",04/05/2020,1.59E+12,04/05/2020,1.59E+12,
5e64a832757e6121f493724c,7348245,19,M,scaleresp,12,1,1,2,1,1,20,0,953,1808,87,,408292,0.0-57.0,html-slider-response,57,"<p style=font-size:16px; text-align:center;"">  How responsible do you feel concerning <br> the outcome ? </p>""",,04/05/2020,1.59E+12,04/05/2020,1.59E+12,
5ad8c254c0332a0001ec703c,7529639,26,F,scaleresp,5,2,2,2,1,4,11,1,1412,1639.82,71,,249928,0.0-37.0,html-slider-response,37,"<p style=font-size:16px; text-align:center;"">  How responsible do you feel concerning <br> the outcome ? </p>""",,04/05/2020,1.59E+12,04/05/2020,1.59E+12,
57aaf19dec792e000181d028,3977321,30,f,survey,,,,,,,,,,5523,,,29415,0.0-4.0,survey-text,4,,"{Q0"":""30""","Q1:""f""}""",04/05/2020,1.59E+12,04/05/2020,1.59E+12
5c5ab546903c7700010a4518,8042707,27,F,scaleresp,15,2,1,2,1,7,12,0,1133,1935.295,31,,243311,0.0-62.0,html-slider-response,62,"<p style=font-size:16px; text-align:center;"">  How responsible do you feel concerning <br> the outcome ? </p>""",,04/05/2020,1.59E+12,04/05/2020,1.59E+12,
5e64a832757e6121f493724c,7348245,19,M,scaleresp,4,1,2,2,1,7,10,0,915,2087,52,,420131,0.0-62.0,html-slider-response,62,"<p style=font-size:16px; text-align:center;"">  How responsible do you feel concerning <br> the outcome ? </p>""",,04/05/2020,1.59E+12,04/05/2020,1.59E+12,
5df8411cfeea895e82d45d5d,9990844,,,surveyid,,,,,,,,,,23451,,,53569,0.0-3.0,survey-text,3,,"{Q0"":""5df8411cfeea895e82d45d5d""}""",04/05/2020,1.59E+12,04/05/2020,1.59E+12,
5c5ab546903c7700010a4518,8042707,27,F,scaleresp,20,1,2,2,1,13,18,0,941,1788.7,44,,254735,0.0-67.0,html-slider-response,67,"<p style=font-size:16px; text-align:center;"">  How responsible do you feel concerning <br> the outcome ? </p>""",,04/05/2020,1.59E+12,04/05/2020,1.59E+12,
5ad8c254c0332a0001ec703c,7529639,26,F,scaleresp,11,2,1,2,1,7,9,0,1721,2045.545,72,,262476,0.0-42.0,html-slider-response,42,"<p style=font-size:16px; text-align:center;"">  How responsible do you feel concerning <br> the outcome ? </p>""",,04/05/2020,1.59E+12,04/05/2020,1.59E+12,
5df8411cfeea895e82d45d5d,9990844,25,m,survey,,,,,,,,,,5057,,,58640,0.0-4.0,survey-text,4,,"{Q0"":""25""","Q1:""m""}""",04/05/2020,1.59E+12,04/05/2020,1.59E+12
5e64a832757e6121f493724c,7348245,19,M,scaleresp,9,2,2,1,1,3,11,0,969,1823,26,,431515,0.0-67.0,html-slider-response,67,"<p style=font-size:16px; text-align:center;"">  How responsible do you feel concerning <br> the outcome ? </p>""",,04/05/2020,1.59E+12,04/05/2020,1.59E+12,
5c5ab546903c7700010a4518,8042707,27,F,scaleresp,4,1,2,2,1,11,14,1,1056,1982.645,45,,266623,0.0-72.0,html-slider-response,72,"<p style=font-size:16px; text-align:center;"">  How responsible do you feel concerning <br> the outcome ? </p>""",,04/05/2020,1.59E+12,04/05/2020,1.59E+12,
5ad8c254c0332a0001ec703c,7529639,26,F,scaleresp,7,2,2,1,1,9,12,1,1586,1711.03,72,,274414,0.0-47.0,html-slider-response,47,"<p style=font-size:16px; text-align:center;"">  How responsible do you feel concerning <br> the outcome ? </p>""",,04/05/2020,1.59E+12,04/05/2020,1.59E+12,
5e64a832757e6121f493724c,7348245,19,M,scaleresp,7,2,2,1,1,3,9,1,963,4033,24,,445275,0.0-72.0,html-slider-response,72,"<p style=font-size:16px; text-align:center;"">  How responsible do you feel concerning <br> the outcome ? </p>""",,04/05/2020,1.59E+12,04/05/2020,1.59E+12,
5c5ab546903c7700010a4518,8042707,27,F,scaleresp,8,1,2,1,1,12,20,1,1127,1800.555,46,,278143,0.0-77.0,html-slider-response,77,"<p style=font-size:16px; text-align:center;"">  How responsible do you feel concerning <br> the outcome ? </p>""",,04/05/2020,1.59E+12,04/05/2020,1.59E+12,
5dadad152e8c52001757fbe6,4382999,20,F,scaleresp,8,1,2,1,2,2,9,0,678,2904.145,66,,473974,0.0-113.0,html-slider-response,113,"<p style=font-size:16px; text-align:center;"">  How responsible do you feel concerning <br> the outcome ? </p>""",,04/05/2020,1.59E+12,04/05/2020,1.59E+12,
5ad8c254c0332a0001ec703c,7529639,26,F,scaleresp,2,1,2,2,1,15,18,1,1399,1813.9,84,,286580,0.0-52.0,html-slider-response,52,"<p style=font-size:16px; text-align:center;"">  How responsible do you feel concerning <br> the outcome ? </p>""",,04/05/2020,1.59E+12,04/05/2020,1.59E+12,
5c5ab546903c7700010a4518,8042707,27,F,scaleresp,10,1,1,2,1,1,15,1,885,1858.51,44,,289679,0.0-82.0,html-slider-response,82,"<p style=font-size:16px; text-align:center;"">  How responsible do you feel concerning <br> the outcome ? </p>""",,04/05/2020,1.59E+12,04/05/2020,1.59E+12,
5ad8c254c0332a0001ec703c,7529639,26,F,scaleresp,20,1,2,2,1,3,19,1,1764,1949.52,83,,299184,0.0-57.0,html-slider-response,57,"<p style=font-size:16px; text-align:center;"">  How responsible do you feel concerning <br> the outcome ? </p>""",,04/05/2020,1.59E+12,04/05/2020,1.59E+12,
5e64a832757e6121f493724c,7348245,19,M,scaleresp,6,1,2,1,1,9,15,1,962,5104,19,,460035,0.0-77.0,html-slider-response,77,"<p style=font-size:16px; text-align:center;"">  How responsible do you feel concerning <br> the outcome ? </p>""",,04/05/2020,1.59E+12,04/05/2020,1.59E+12,
5dadad152e8c52001757fbe6,4382999,20,F,scaleresp,19,2,1,1,2,8,18,0,985,5499.76,100,,489380,0.0-118.0,html-slider-response,118,"<p style=font-size:16px; text-align:center;"">  How responsible do you feel concerning <br> the outcome ? </p>""",,04/05/2020,1.59E+12,04/05/2020,1.59E+12,
5c5ab546903c7700010a4518,8042707,27,F,scaleresp,12,1,1,2,1,16,18,0,1008,1857.375,55,,301439,0.0-87.0,html-slider-response,87,"<p style=font-size:16px; text-align:center;"">  How responsible do you feel concerning <br> the outcome ? </p>""",,04/05/2020,1.59E+12,04/05/2020,1.59E+12,
5ad8c254c0332a0001ec703c,7529639,26,F,scaleresp,19,2,1,1,1,2,6,0,1617,1611.405,90,,311178,0.0-62.0,html-slider-response,62,"<p style=font-size:16px; text-align:center;"">  How responsible do you feel concerning <br> the outcome ? </p>""",,04/05/2020,1.59E+12,04/05/2020,1.59E+12,
5e64a832757e6121f493724c,7348245,19,M,scaleresp,8,1,2,1,1,9,16,1,1238,2078,75,,472220,0.0-82.0,html-slider-response,82,"<p style=font-size:16px; text-align:center;"">  How responsible do you feel concerning <br> the outcome ? </p>""",,04/05/2020,1.59E+12,04/05/2020,1.59E+12,
5dadad152e8c52001757fbe6,4382999,20,F,scaleresp,18,1,1,1,2,13,20,0,889,4290.015,90,,503145,0.0-123.0,html-slider-response,123,"<p style=font-size:16px; text-align:center;"">  How responsible do you feel concerning <br> the outcome ? </p>""",,04/05/2020,1.59E+12,04/05/2020,1.59E+12,
5df8411cfeea895e82d45d5d,9990844,25,m,scaleresp,3,2,2,2,1,10,11,,,,,,107068,0.0-12.0,html-slider-response,12,"<p style=font-size:16px; text-align:center;"">  How responsible do you feel concerning <br> the outcome ? </p>""",,04/05/2020,1.59E+12,04/05/2020,1.59E+12,
57aaf19dec792e000181d028,3977321,30,f,scaleresp,8,1,2,1,1,2,3,1,1565,3984.055,56,,94223,0.0-12.0,html-slider-response,12,"<p style=font-size:16px; text-align:center;"">  How responsible do you feel concerning <br> the outcome ? </p>""",,04/05/2020,1.59E+12,04/05/2020,1.59E+12,
5c2cdd5cded72200015eed0f,2995551,,,surveyid,,,,,,,,,,8597,,,72788,0.0-3.0,survey-text,3,,"{Q0"":""5c2cdd5cded72200015eed0f""}""",04/05/2020,1.59E+12,04/05/2020,1.59E+12,
5c5ab546903c7700010a4518,8042707,27,F,scaleresp,17,2,1,1,1,5,19,0,1031,1543.99,62,,312775,0.0-92.0,html-slider-response,92,"<p style=font-size:16px; text-align:center;"">  How responsible do you feel concerning <br> the outcome ? </p>""",,04/05/2020,1.59E+12,04/05/2020,1.59E+12,
5ad8c254c0332a0001ec703c,7529639,26,F,scaleresp,4,1,2,2,1,8,20,1,1853,1564.77,86,,323206,0.0-67.0,html-slider-response,67,"<p style=font-size:16px; text-align:center;"">  How responsible do you feel concerning <br> the outcome ? </p>""",,04/05/2020,1.59E+12,04/05/2020,1.59E+12,
5e64a832757e6121f493724c,7348245,19,M,scaleresp,16,1,1,1,1,2,15,1,1054,1911,98,,484187,0.0-87.0,html-slider-response,87,"<p style=font-size:16px; text-align:center;"">  How responsible do you feel concerning <br> the outcome ? </p>""",,04/05/2020,1.59E+12,04/05/2020,1.59E+12,
5dadad152e8c52001757fbe6,4382999,20,F,scaleresp,15,2,1,2,2,1,18,0,1170,2073.315,1,,515195,0.0-128.0,html-slider-response,128,"<p style=font-size:16px; text-align:center;"">  How responsible do you feel concerning <br> the outcome ? </p>""",,04/05/2020,1.59E+12,04/05/2020,1.59E+12,
57aaf19dec792e000181d028,3977321,30,f,scaleresp,20,1,2,2,1,9,10,0,891,2935.805,58,,106887,0.0-17.0,html-slider-response,17,"<p style=font-size:16px; text-align:center;"">  How responsible do you feel concerning <br> the outcome ? </p>""",,04/05/2020,1.59E+12,04/05/2020,1.59E+12,
5c2cdd5cded72200015eed0f,2995551,29,M,survey,,,,,,,,,,11356,,,84167,0.0-4.0,survey-text,4,,"{Q0"":""29""","Q1:""M""}""",04/05/2020,1.59E+12,04/05/2020,1.59E+12
5df8411cfeea895e82d45d5d,9990844,25,m,scaleresp,8,1,2,1,1,4,10,0,1152,5813.145,4,,122732,0.0-17.0,html-slider-response,17,"<p style=font-size:16px; text-align:center;"">  How responsible do you feel concerning <br> the outcome ? </p>""",,04/05/2020,1.59E+12,04/05/2020,1.59E+12,
5c5ab546903c7700010a4518,8042707,27,F,scaleresp,9,2,2,1,1,4,17,1,785,1580.14,37,,324135,0.0-97.0,html-slider-response,97,"<p style=font-size:16px; text-align:center;"">  How responsible do you feel concerning <br> the outcome ? </p>""",,04/05/2020,1.59E+12,04/05/2020,1.59E+12,
5e64a832757e6121f493724c,7348245,19,M,scaleresp,1,2,2,2,1,6,12,0,505,2181,94,,495643,0.0-92.0,html-slider-response,92,"<p style=font-size:16px; text-align:center;"">  How responsible do you feel concerning <br> the outcome ? </p>""",,04/05/2020,1.59E+12,04/05/2020,1.59E+12,
5ad8c254c0332a0001ec703c,7529639,26,F,scaleresp,6,1,2,1,1,6,14,1,1762,1606.965,80,,335570,0.0-72.0,html-slider-response,72,"<p style=font-size:16px; text-align:center;"">  How responsible do you feel concerning <br> the outcome ? </p>""",,04/05/2020,1.59E+12,04/05/2020,1.59E+12,
5dadad152e8c52001757fbe6,4382999,20,F,scaleresp,5,2,2,2,2,9,14,1,931,2858,78,,527697,0.0-133.0,html-slider-response,133,"<p style=font-size:16px; text-align:center;"">  How responsible do you feel concerning <br> the outcome ? </p>""",,04/05/2020,1.59E+12,04/05/2020,1.59E+12,
57aaf19dec792e000181d028,3977321,30,f,scaleresp,4,1,2,2,1,10,13,0,1043,2068.845,29,,118694,0.0-22.0,html-slider-response,22,"<p style=font-size:16px; text-align:center;"">  How responsible do you feel concerning <br> the outcome ? </p>""",,04/05/2020,1.59E+12,04/05/2020,1.59E+12,
5c5ab546903c7700010a4518,8042707,27,F,scaleresp,2,1,2,2,1,11,19,1,1274,1674.47,35,,335983,0.0-102.0,html-slider-response,102,"<p style=font-size:16px; text-align:center;"">  How responsible do you feel concerning <br> the outcome ? </p>""",,04/05/2020,1.59E+12,04/05/2020,1.59E+12,
5df8411cfeea895e82d45d5d,9990844,25,m,scaleresp,19,2,1,1,1,5,11,1,1500,3586.63,87,,136375,0.0-22.0,html-slider-response,22,"<p style=font-size:16px; text-align:center;"">  How responsible do you feel concerning <br> the outcome ? </p>""",,04/05/2020,1.59E+12,04/05/2020,1.59E+12,
5e64a832757e6121f493724c,7348245,19,M,scaleresp,14,1,1,2,1,15,20,0,692,1945,100,,507226,0.0-97.0,html-slider-response,97,"<p style=font-size:16px; text-align:center;"">  How responsible do you feel concerning <br> the outcome ? </p>""",,04/05/2020,1.59E+12,04/05/2020,1.59E+12,
5ad8c254c0332a0001ec703c,7529639,26,F,scaleresp,9,2,2,1,1,2,9,1,1650,2062.06,75,,347910,0.0-77.0,html-slider-response,77,"<p style=font-size:16px; text-align:center;"">  How responsible do you feel concerning <br> the outcome ? </p>""",,04/05/2020,1.59E+12,04/05/2020,1.59E+12,
5dadad152e8c52001757fbe6,4382999,20,F,scaleresp,3,2,2,2,2,3,19,,,,,,538413,0.0-138.0,html-slider-response,138,"<p style=font-size:16px; text-align:center;"">  How responsible do you feel concerning <br> the outcome ? </p>""",,04/05/2020,1.59E+12,04/05/2020,1.59E+12,
57aaf19dec792e000181d028,3977321,30,f,scaleresp,14,1,1,2,1,6,15,1,1281,1892.285,40,,130734,0.0-27.0,html-slider-response,27,"<p style=font-size:16px; text-align:center;"">  How responsible do you feel concerning <br> the outcome ? </p>""",,04/05/2020,1.59E+12,04/05/2020,1.59E+12,
5c5ab546903c7700010a4518,8042707,27,F,scaleresp,19,2,1,1,1,16,19,1,843,2169.51,8,,347703,0.0-107.0,html-slider-response,107,"<p style=font-size:16px; text-align:center;"">  How responsible do you feel concerning <br> the outcome ? </p>""",,04/05/2020,1.59E+12,04/05/2020,1.59E+12,
5df8411cfeea895e82d45d5d,9990844,25,m,scaleresp,5,2,2,2,1,11,15,0,1221,3718.29,24,,150171,0.0-27.0,html-slider-response,27,"<p style=font-size:16px; text-align:center;"">  How responsible do you feel concerning <br> the outcome ? </p>""",,04/05/2020,1.59E+12,04/05/2020,1.59E+12,
5ad8c254c0332a0001ec703c,7529639,26,F,scaleresp,10,1,1,2,1,8,13,0,1852,1515.315,82,,360140,0.0-82.0,html-slider-response,82,"<p style=font-size:16px; text-align:center;"">  How responsible do you feel concerning <br> the outcome ? </p>""",,04/05/2020,1.59E+12,04/05/2020,1.59E+12,
5e64a832757e6121f493724c,7348245,19,M,scaleresp,5,2,2,2,1,3,14,1,841,4465,100,,521419,0.0-102.0,html-slider-response,102,"<p style=font-size:16px; text-align:center;"">  How responsible do you feel concerning <br> the outcome ? </p>""",,04/05/2020,1.59E+12,04/05/2020,1.59E+12,
5dadad152e8c52001757fbe6,4382999,20,F,scaleresp,7,2,2,1,2,8,9,0,689,1880.08,70,,549517,0.0-143.0,html-slider-response,143,"<p style=font-size:16px; text-align:center;"">  How responsible do you feel concerning <br> the outcome ? </p>""",,04/05/2020,1.59E+12,04/05/2020,1.59E+12,
57aaf19dec792e000181d028,3977321,30,f,scaleresp,3,2,2,2,1,16,19,1,963,2178.52,36,,142662,0.0-32.0,html-slider-response,32,"<p style=font-size:16px; text-align:center;"">  How responsible do you feel concerning <br> the outcome ? </p>""",,04/05/2020,1.59E+12,04/05/2020,1.59E+12,
5c5ab546903c7700010a4518,8042707,27,F,scaleresp,7,2,2,1,2,1,10,1,1044,1541.025,39,,360255,0.0-113.0,html-slider-response,113,"<p style=font-size:16px; text-align:center;"">  How responsible do you feel concerning <br> the outcome ? </p>""",,04/05/2020,1.59E+12,04/05/2020,1.59E+12,
5c2cdd5cded72200015eed0f,2995551,29,M,scaleresp,9,2,2,1,1,8,20,1,1439,2853.7,72,,121856,0.0-12.0,html-slider-response,12,"<p style=font-size:16px; text-align:center;"">  How responsible do you feel concerning <br> the outcome ? </p>""",,04/05/2020,1.59E+12,04/05/2020,1.59E+12,
5df8411cfeea895e82d45d5d,9990844,25,m,scaleresp,12,1,1,2,1,16,20,0,1345,1476.865,68,,161619,0.0-32.0,html-slider-response,32,"<p style=font-size:16px; text-align:center;"">  How responsible do you feel concerning <br> the outcome ? </p>""",,04/05/2020,1.59E+12,04/05/2020,1.59E+12,
5dadad152e8c52001757fbe6,4382999,20,F,scaleresp,10,1,1,2,2,3,4,,,,,,560277,0.0-148.0,html-slider-response,148,"<p style=font-size:16px; text-align:center;"">  How responsible do you feel concerning <br> the outcome ? </p>""",,04/05/2020,1.59E+12,04/05/2020,1.59E+12,
5ad8c254c0332a0001ec703c,7529639,26,F,scaleresp,17,2,1,1,1,14,19,1,1752,2072.105,85,,372614,0.0-87.0,html-slider-response,87,"<p style=font-size:16px; text-align:center;"">  How responsible do you feel concerning <br> the outcome ? </p>""",,04/05/2020,1.59E+12,04/05/2020,1.59E+12,
5e64a832757e6121f493724c,7348245,19,M,scaleresp,19,2,1,1,1,1,9,1,1076,1923,100,,533307,0.0-107.0,html-slider-response,107,"<p style=font-size:16px; text-align:center;"">  How responsible do you feel concerning <br> the outcome ? </p>""",,04/05/2020,1.59E+12,04/05/2020,1.59E+12,
57aaf19dec792e000181d028,3977321,30,f,scaleresp,12,1,1,2,1,3,5,0,936,2541.545,61,,154950,0.0-37.0,html-slider-response,37,"<p style=font-size:16px; text-align:center;"">  How responsible do you feel concerning <br> the outcome ? </p>""",,04/05/2020,1.59E+12,04/05/2020,1.59E+12,
5c5ab546903c7700010a4518,8042707,27,F,scaleresp,16,1,1,1,2,7,13,0,707,3252.435,60,,372751,0.0-118.0,html-slider-response,118,"<p style=font-size:16px; text-align:center;"">  How responsible do you feel concerning <br> the outcome ? </p>""",,04/05/2020,1.59E+12,04/05/2020,1.59E+12,
5c2cdd5cded72200015eed0f,2995551,29,M,scaleresp,16,1,1,1,1,3,6,0,1430,2562.7,75,,134792,0.0-17.0,html-slider-response,17,"<p style=font-size:16px; text-align:center;"">  How responsible do you feel concerning <br> the outcome ? </p>""",,04/05/2020,1.59E+12,04/05/2020,1.59E+12,
5da4db9d6599b0001542a7b0,7942662,,,surveyid,,,,,,,,,,2324,,,18047,0.0-3.0,survey-text,3,,"{Q0"":""5da4db9d6599b0001542a7b0""}""",04/05/2020,1.59E+12,04/05/2020,1.59E+12,
5df8411cfeea895e82d45d5d,9990844,25,m,scaleresp,16,1,1,1,1,6,12,0,1355,2788.59,75,,174324,0.0-37.0,html-slider-response,37,"<p style=font-size:16px; text-align:center;"">  How responsible do you feel concerning <br> the outcome ? </p>""",,04/05/2020,1.59E+12,04/05/2020,1.59E+12,
5ad8c254c0332a0001ec703c,7529639,26,F,scaleresp,14,1,1,2,1,5,10,,,,,,383327,0.0-92.0,html-slider-response,92,"<p style=font-size:16px; text-align:center;"">  How responsible do you feel concerning <br> the outcome ? </p>""",,04/05/2020,1.59E+12,04/05/2020,1.59E+12,
5dadad152e8c52001757fbe6,4382999,20,F,scaleresp,11,2,1,2,2,4,13,1,815,1881.24,2,,571692,0.0-153.0,html-slider-response,153,"<p style=font-size:16px; text-align:center;"">  How responsible do you feel concerning <br> the outcome ? </p>""",,04/05/2020,1.59E+12,04/05/2020,1.59E+12,
5e64a832757e6121f493724c,7348245,19,M,scaleresp,7,2,2,1,2,3,5,0,797,1783,100,,547627,0.0-113.0,html-slider-response,113,"<p style=font-size:16px; text-align:center;"">  How responsible do you feel concerning <br> the outcome ? </p>""",,04/05/2020,1.59E+12,04/05/2020,1.59E+12,
5da4db9d6599b0001542a7b0,7942662,21,M,survey,,,,,,,,,,6301,,,24352,0.0-4.0,survey-text,4,,"{Q0"":""21""","Q1:""M""}""",04/05/2020,1.59E+12,04/05/2020,1.59E+12
57aaf19dec792e000181d028,3977321,30,f,scaleresp,2,1,2,2,1,4,19,0,1099,3021.47,61,,167918,0.0-42.0,html-slider-response,42,"<p style=font-size:16px; text-align:center;"">  How responsible do you feel concerning <br> the outcome ? </p>""",,04/05/2020,1.59E+12,04/05/2020,1.59E+12,
5c5ab546903c7700010a4518,8042707,27,F,scaleresp,3,2,2,2,2,3,4,0,1274,2116.56,54,,385127,0.0-123.0,html-slider-response,123,"<p style=font-size:16px; text-align:center;"">  How responsible do you feel concerning <br> the outcome ? </p>""",,04/05/2020,1.59E+12,04/05/2020,1.59E+12,
5c2cdd5cded72200015eed0f,2995551,29,M,scaleresp,10,1,1,2,1,5,10,0,1160,2201.8,74,,146797,0.0-22.0,html-slider-response,22,"<p style=font-size:16px; text-align:center;"">  How responsible do you feel concerning <br> the outcome ? </p>""",,04/05/2020,1.59E+12,04/05/2020,1.59E+12,
5dadad152e8c52001757fbe6,4382999,20,F,scaleresp,1,2,2,2,2,9,15,,,,,,582303,0.0-158.0,html-slider-response,158,"<p style=font-size:16px; text-align:center;"">  How responsible do you feel concerning <br> the outcome ? </p>""",,04/05/2020,1.59E+12,04/05/2020,1.59E+12,
5ad8c254c0332a0001ec703c,7529639,26,F,scaleresp,18,1,1,1,1,14,16,0,1102,1715.23,80,,394964,0.0-97.0,html-slider-response,97,"<p style=font-size:16px; text-align:center;"">  How responsible do you feel concerning <br> the outcome ? </p>""",,04/05/2020,1.59E+12,04/05/2020,1.59E+12,
5df8411cfeea895e82d45d5d,9990844,25,m,scaleresp,4,1,2,2,1,1,2,1,1493,2710.19,9,,187131,0.0-42.0,html-slider-response,42,"<p style=font-size:16px; text-align:center;"">  How responsible do you feel concerning <br> the outcome ? </p>""",,04/05/2020,1.59E+12,04/05/2020,1.59E+12,
5e64a832757e6121f493724c,7348245,19,M,scaleresp,20,1,2,2,2,3,10,1,1364,2419,79,,560043,0.0-118.0,html-slider-response,118,"<p style=font-size:16px; text-align:center;"">  How responsible do you feel concerning <br> the outcome ? </p>""",,04/05/2020,1.59E+12,04/05/2020,1.59E+12,
57aaf19dec792e000181d028,3977321,30,f,scaleresp,15,2,1,2,1,6,14,0,1281,2664.005,56,,180766,0.0-47.0,html-slider-response,47,"<p style=font-size:16px; text-align:center;"">  How responsible do you feel concerning <br> the outcome ? </p>""",,04/05/2020,1.59E+12,04/05/2020,1.59E+12,
5c2cdd5cded72200015eed0f,2995551,29,M,scaleresp,7,2,2,1,1,6,8,,,,,,157749,0.0-27.0,html-slider-response,27,"<p style=font-size:16px; text-align:center;"">  How responsible do you feel concerning <br> the outcome ? </p>""",,04/05/2020,1.59E+12,04/05/2020,1.59E+12,
5c5ab546903c7700010a4518,8042707,27,F,scaleresp,18,1,1,1,2,2,17,1,851,2066.17,75,,396855,0.0-128.0,html-slider-response,128,"<p style=font-size:16px; text-align:center;"">  How responsible do you feel concerning <br> the outcome ? </p>""",,04/05/2020,1.59E+12,04/05/2020,1.59E+12,
5dadad152e8c52001757fbe6,4382999,20,F,scaleresp,4,1,2,2,2,18,20,,,,,,592910,0.0-163.0,html-slider-response,163,"<p style=font-size:16px; text-align:center;"">  How responsible do you feel concerning <br> the outcome ? </p>""",,04/05/2020,1.59E+12,04/05/2020,1.59E+12,
5ad8c254c0332a0001ec703c,7529639,26,F,scaleresp,1,2,2,2,1,15,17,1,923,1722.85,88,,406198,0.0-102.0,html-slider-response,102,"<p style=font-size:16px; text-align:center;"">  How responsible do you feel concerning <br> the outcome ? </p>""",,04/05/2020,1.59E+12,04/05/2020,1.59E+12,
5df8411cfeea895e82d45d5d,9990844,25,m,scaleresp,17,2,1,1,1,10,13,0,1321,2368.215,69,,199419,0.0-47.0,html-slider-response,47,"<p style=font-size:16px; text-align:center;"">  How responsible do you feel concerning <br> the outcome ? </p>""",,04/05/2020,1.59E+12,04/05/2020,1.59E+12,
5e64a832757e6121f493724c,7348245,19,M,scaleresp,17,2,1,1,2,3,6,0,638,2910,100,,572684,0.0-123.0,html-slider-response,123,"<p style=font-size:16px; text-align:center;"">  How responsible do you feel concerning <br> the outcome ? </p>""",,04/05/2020,1.59E+12,04/05/2020,1.59E+12,
57aaf19dec792e000181d028,3977321,30,f,scaleresp,5,2,2,2,1,12,18,1,738,1878.065,59,,192151,0.0-52.0,html-slider-response,52,"<p style=font-size:16px; text-align:center;"">  How responsible do you feel concerning <br> the outcome ? </p>""",,04/05/2020,1.59E+12,04/05/2020,1.59E+12,
5dadad152e8c52001757fbe6,4382999,20,F,scaleresp,13,2,1,2,2,9,13,,,,,,603487,0.0-168.0,html-slider-response,168,"<p style=font-size:16px; text-align:center;"">  How responsible do you feel concerning <br> the outcome ? </p>""",,04/05/2020,1.59E+12,04/05/2020,1.59E+12,
5c2cdd5cded72200015eed0f,2995551,29,M,scaleresp,2,1,2,2,1,2,19,1,1125,1501.4,74,,169436,0.0-32.0,html-slider-response,32,"<p style=font-size:16px; text-align:center;"">  How responsible do you feel concerning <br> the outcome ? </p>""",,04/05/2020,1.59E+12,04/05/2020,1.59E+12,
5c5ab546903c7700010a4518,8042707,27,F,scaleresp,11,2,1,2,2,6,13,0,1043,2286.655,47,,408926,0.0-133.0,html-slider-response,133,"<p style=font-size:16px; text-align:center;"">  How responsible do you feel concerning <br> the outcome ? </p>""",,04/05/2020,1.59E+12,04/05/2020,1.59E+12,
5ad8c254c0332a0001ec703c,7529639,26,F,scaleresp,3,2,2,2,1,14,17,0,893,3203.51,78,,419014,0.0-107.0,html-slider-response,107,"<p style=font-size:16px; text-align:center;"">  How responsible do you feel concerning <br> the outcome ? </p>""",,04/05/2020,1.59E+12,04/05/2020,1.59E+12,
5df8411cfeea895e82d45d5d,9990844,25,m,scaleresp,1,2,2,2,1,5,8,1,1020,2079.205,31,,211271,0.0-52.0,html-slider-response,52,"<p style=font-size:16px; text-align:center;"">  How responsible do you feel concerning <br> the outcome ? </p>""",,04/05/2020,1.59E+12,04/05/2020,1.59E+12,
5e64a832757e6121f493724c,7348245,19,M,scaleresp,18,1,1,1,2,9,18,1,755,1559,100,,583811,0.0-128.0,html-slider-response,128,"<p style=font-size:16px; text-align:center;"">  How responsible do you feel concerning <br> the outcome ? </p>""",,04/05/2020,1.59E+12,04/05/2020,1.59E+12,
57aaf19dec792e000181d028,3977321,30,f,scaleresp,11,2,1,2,1,8,17,1,1314,2479.055,29,,204639,0.0-57.0,html-slider-response,57,"<p style=font-size:16px; text-align:center;"">  How responsible do you feel concerning <br> the outcome ? </p>""",,04/05/2020,1.59E+12,04/05/2020,1.59E+12,
5dadad152e8c52001757fbe6,4382999,20,F,scaleresp,14,1,1,2,2,16,20,,,,,,614366,0.0-173.0,html-slider-response,173,"<p style=font-size:16px; text-align:center;"">  How responsible do you feel concerning <br> the outcome ? </p>""",,04/05/2020,1.59E+12,04/05/2020,1.59E+12,
5c2cdd5cded72200015eed0f,2995551,29,M,scaleresp,12,1,1,2,1,7,14,0,961,1581.1,72,,180831,0.0-37.0,html-slider-response,37,"<p style=font-size:16px; text-align:center;"">  How responsible do you feel concerning <br> the outcome ? </p>""",,04/05/2020,1.59E+12,04/05/2020,1.59E+12,
5c5ab546903c7700010a4518,8042707,27,F,scaleresp,6,1,2,1,2,11,17,1,771,1699.44,75,,420246,0.0-138.0,html-slider-response,138,"<p style=font-size:16px; text-align:center;"">  How responsible do you feel concerning <br> the outcome ? </p>""",,04/05/2020,1.59E+12,04/05/2020,1.59E+12,
5df8411cfeea895e82d45d5d,9990844,25,m,scaleresp,10,1,1,2,1,4,16,0,699,1464.25,64,,222282,0.0-57.0,html-slider-response,57,"<p style=font-size:16px; text-align:center;"">  How responsible do you feel concerning <br> the outcome ? </p>""",,04/05/2020,1.59E+12,04/05/2020,1.59E+12,
5ad8c254c0332a0001ec703c,7529639,26,F,scaleresp,8,1,2,1,2,6,8,1,1053,2224.445,78,,434023,0.0-113.0,html-slider-response,113,"<p style=font-size:16px; text-align:center;"">  How responsible do you feel concerning <br> the outcome ? </p>""",,04/05/2020,1.59E+12,04/05/2020,1.59E+12,
5e64a832757e6121f493724c,7348245,19,M,scaleresp,3,2,2,2,2,4,11,0,749,3430,49,,596843,0.0-133.0,html-slider-response,133,"<p style=font-size:16px; text-align:center;"">  How responsible do you feel concerning <br> the outcome ? </p>""",,04/05/2020,1.59E+12,04/05/2020,1.59E+12,
5dadad152e8c52001757fbe6,4382999,20,F,scaleresp,12,1,1,2,2,6,11,,,,,,625175,0.0-178.0,html-slider-response,178,"<p style=font-size:16px; text-align:center;"">  How responsible do you feel concerning <br> the outcome ? </p>""",,04/05/2020,1.59E+12,04/05/2020,1.59E+12,
57aaf19dec792e000181d028,3977321,30,f,scaleresp,18,1,1,1,1,2,6,0,1282,1754.615,67,,216350,0.0-62.0,html-slider-response,62,"<p style=font-size:16px; text-align:center;"">  How responsible do you feel concerning <br> the outcome ? </p>""",,04/05/2020,1.59E+12,04/05/2020,1.59E+12,
5c2cdd5cded72200015eed0f,2995551,29,M,scaleresp,1,2,2,2,1,5,11,1,846,1608.7,83,,192285,0.0-42.0,html-slider-response,42,"<p style=font-size:16px; text-align:center;"">  How responsible do you feel concerning <br> the outcome ? </p>""",,04/05/2020,1.59E+12,04/05/2020,1.59E+12,
5c5ab546903c7700010a4518,8042707,27,F,scaleresp,13,2,1,2,2,11,12,1,963,1723.15,67,,431527,0.0-143.0,html-slider-response,143,"<p style=font-size:16px; text-align:center;"">  How responsible do you feel concerning <br> the outcome ? </p>""",,04/05/2020,1.59E+12,04/05/2020,1.59E+12,
5df8411cfeea895e82d45d5d,9990844,25,m,scaleresp,18,1,1,1,1,6,17,0,996,1886.705,82,,234124,0.0-62.0,html-slider-response,62,"<p style=font-size:16px; text-align:center;"">  How responsible do you feel concerning <br> the outcome ? </p>""",,04/05/2020,1.59E+12,04/05/2020,1.59E+12,
5ad8c254c0332a0001ec703c,7529639,26,F,scaleresp,6,1,2,1,2,13,16,0,996,1678.41,80,,445526,0.0-118.0,html-slider-response,118,"<p style=font-size:16px; text-align:center;"">  How responsible do you feel concerning <br> the outcome ? </p>""",,04/05/2020,1.59E+12,04/05/2020,1.59E+12,
5dadad152e8c52001757fbe6,4382999,20,F,scaleresp,2,1,2,2,2,4,8,,,,,,635795,0.0-183.0,html-slider-response,183,"<p style=font-size:16px; text-align:center;"">  How responsible do you feel concerning <br> the outcome ? </p>""",,04/05/2020,1.59E+12,04/05/2020,1.59E+12,
5e64a832757e6121f493724c,7348245,19,M,scaleresp,13,2,1,2,2,9,20,0,1092,2352,100,,608883,0.0-138.0,html-slider-response,138,"<p style=font-size:16px; text-align:center;"">  How responsible do you feel concerning <br> the outcome ? </p>""",,04/05/2020,1.59E+12,04/05/2020,1.59E+12,
57aaf19dec792e000181d028,3977321,30,f,scaleresp,19,2,1,1,1,5,7,0,1139,2163.265,62,,228382,0.0-67.0,html-slider-response,67,"<p style=font-size:16px; text-align:center;"">  How responsible do you feel concerning <br> the outcome ? </p>""",,04/05/2020,1.59E+12,04/05/2020,1.59E+12,
5c5ab546903c7700010a4518,8042707,27,F,scaleresp,17,2,1,1,2,3,13,1,913,1694.445,63,,442959,0.0-148.0,html-slider-response,148,"<p style=font-size:16px; text-align:center;"">  How responsible do you feel concerning <br> the outcome ? </p>""",,04/05/2020,1.59E+12,04/05/2020,1.59E+12,
5c2cdd5cded72200015eed0f,2995551,29,M,scaleresp,15,2,1,2,1,13,18,0,1011,2470.5,66,,204851,0.0-47.0,html-slider-response,47,"<p style=font-size:16px; text-align:center;"">  How responsible do you feel concerning <br> the outcome ? </p>""",,04/05/2020,1.59E+12,04/05/2020,1.59E+12,
5df8411cfeea895e82d45d5d,9990844,25,m,scaleresp,15,2,1,2,1,4,19,0,1349,1587.1,56,,246003,0.0-67.0,html-slider-response,67,"<p style=font-size:16px; text-align:center;"">  How responsible do you feel concerning <br> the outcome ? </p>""",,04/05/2020,1.59E+12,04/05/2020,1.59E+12,
5ad8c254c0332a0001ec703c,7529639,26,F,scaleresp,9,2,2,1,2,7,17,0,826,1874.865,93,,457066,0.0-123.0,html-slider-response,123,"<p style=font-size:16px; text-align:center;"">  How responsible do you feel concerning <br> the outcome ? </p>""",,04/05/2020,1.59E+12,04/05/2020,1.59E+12,
5dadad152e8c52001757fbe6,4382999,20,F,scaleresp,16,1,1,1,2,1,2,,,,,,646710,0.0-188.0,html-slider-response,188,"<p style=font-size:16px; text-align:center;"">  How responsible do you feel concerning <br> the outcome ? </p>""",,04/05/2020,1.59E+12,04/05/2020,1.59E+12,
5e64a832757e6121f493724c,7348245,19,M,scaleresp,5,2,2,2,2,6,18,0,803,1512,52,,620091,0.0-143.0,html-slider-response,143,"<p style=font-size:16px; text-align:center;"">  How responsible do you feel concerning <br> the outcome ? </p>""",,04/05/2020,1.59E+12,04/05/2020,1.59E+12,
57aaf19dec792e000181d028,3977321,30,f,scaleresp,13,2,1,2,1,4,11,0,1097,2029.17,60,,240406,0.0-72.0,html-slider-response,72,"<p style=font-size:16px; text-align:center;"">  How responsible do you feel concerning <br> the outcome ? </p>""",,04/05/2020,1.59E+12,04/05/2020,1.59E+12,
5c5ab546903c7700010a4518,8042707,27,F,scaleresp,5,2,2,2,2,7,11,0,1307,1486.69,39,,454511,0.0-153.0,html-slider-response,153,"<p style=font-size:16px; text-align:center;"">  How responsible do you feel concerning <br> the outcome ? </p>""",,04/05/2020,1.59E+12,04/05/2020,1.59E+12,
5c2cdd5cded72200015eed0f,2995551,29,M,scaleresp,13,2,1,2,1,4,14,0,1206,3283.8,71,,218252,0.0-52.0,html-slider-response,52,"<p style=font-size:16px; text-align:center;"">  How responsible do you feel concerning <br> the outcome ? </p>""",,04/05/2020,1.59E+12,04/05/2020,1.59E+12,
5df8411cfeea895e82d45d5d,9990844,25,m,scaleresp,2,1,2,2,1,3,12,0,923,1778.88,33,,257291,0.0-72.0,html-slider-response,72,"<p style=font-size:16px; text-align:center;"">  How responsible do you feel concerning <br> the outcome ? </p>""",,04/05/2020,1.59E+12,04/05/2020,1.59E+12,
5ad8c254c0332a0001ec703c,7529639,26,F,scaleresp,4,1,2,2,2,3,12,1,938,1508.43,89,,468418,0.0-128.0,html-slider-response,128,"<p style=font-size:16px; text-align:center;"">  How responsible do you feel concerning <br> the outcome ? </p>""",,04/05/2020,1.59E+12,04/05/2020,1.59E+12,
5dadad152e8c52001757fbe6,4382999,20,F,scaleresp,20,1,2,2,2,16,18,,,,,,657574,0.0-193.0,html-slider-response,193,"<p style=font-size:16px; text-align:center;"">  How responsible do you feel concerning <br> the outcome ? </p>""",,04/05/2020,1.59E+12,04/05/2020,1.59E+12,
5e64a832757e6121f493724c,7348245,19,M,scaleresp,12,1,1,2,2,7,14,0,805,1584,77,,631427,0.0-148.0,html-slider-response,148,"<p style=font-size:16px; text-align:center;"">  How responsible do you feel concerning <br> the outcome ? </p>""",,04/05/2020,1.59E+12,04/05/2020,1.59E+12,
57aaf19dec792e000181d028,3977321,30,f,scaleresp,9,2,2,1,1,10,14,1,1012,2360.915,52,,252591,0.0-77.0,html-slider-response,77,"<p style=font-size:16px; text-align:center;"">  How responsible do you feel concerning <br> the outcome ? </p>""",,04/05/2020,1.59E+12,04/05/2020,1.59E+12,
5c5ab546903c7700010a4518,8042707,27,F,scaleresp,20,1,2,2,2,11,20,0,1375,1940.805,36,,466639,0.0-158.0,html-slider-response,158,"<p style=font-size:16px; text-align:center;"">  How responsible do you feel concerning <br> the outcome ? </p>""",,04/05/2020,1.59E+12,04/05/2020,1.59E+12,
5c2cdd5cded72200015eed0f,2995551,29,M,scaleresp,17,2,1,1,1,10,13,,,,,,229074,0.0-57.0,html-slider-response,57,"<p style=font-size:16px; text-align:center;"">  How responsible do you feel concerning <br> the outcome ? </p>""",,04/05/2020,1.59E+12,04/05/2020,1.59E+12,
5df8411cfeea895e82d45d5d,9990844,25,m,scaleresp,11,2,1,2,1,1,11,0,1243,2134.265,65,,269443,0.0-77.0,html-slider-response,77,"<p style=font-size:16px; text-align:center;"">  How responsible do you feel concerning <br> the outcome ? </p>""",,04/05/2020,1.59E+12,04/05/2020,1.59E+12,
5ad8c254c0332a0001ec703c,7529639,26,F,scaleresp,20,1,2,2,2,6,15,1,908,1538.5,73,,479592,0.0-133.0,html-slider-response,133,"<p style=font-size:16px; text-align:center;"">  How responsible do you feel concerning <br> the outcome ? </p>""",,04/05/2020,1.59E+12,04/05/2020,1.59E+12,
5dadad152e8c52001757fbe6,4382999,20,F,scaleresp,9,2,2,1,2,8,14,,,,,,668454,0.0-198.0,html-slider-response,198,"<p style=font-size:16px; text-align:center;"">  How responsible do you feel concerning <br> the outcome ? </p>""",,04/05/2020,1.59E+12,04/05/2020,1.59E+12,
5e64a832757e6121f493724c,7348245,19,M,scaleresp,6,1,2,1,2,1,19,1,1546,2707,20,,644699,0.0-153.0,html-slider-response,153,"<p style=font-size:16px; text-align:center;"">  How responsible do you feel concerning <br> the outcome ? </p>""",,04/05/2020,1.59E+12,04/05/2020,1.59E+12,
57aaf19dec792e000181d028,3977321,30,f,scaleresp,10,1,1,2,1,4,8,0,1012,1810.84,66,,263934,0.0-82.0,html-slider-response,82,"<p style=font-size:16px; text-align:center;"">  How responsible do you feel concerning <br> the outcome ? </p>""",,04/05/2020,1.59E+12,04/05/2020,1.59E+12,
5c5ab546903c7700010a4518,8042707,27,F,scaleresp,8,1,2,1,2,3,9,1,1013,1886.125,43,,478271,0.0-163.0,html-slider-response,163,"<p style=font-size:16px; text-align:center;"">  How responsible do you feel concerning <br> the outcome ? </p>""",,04/05/2020,1.59E+12,04/05/2020,1.59E+12,
5c2cdd5cded72200015eed0f,2995551,29,M,scaleresp,6,1,2,1,1,3,4,1,1140,1619.9,77,,240603,0.0-62.0,html-slider-response,62,"<p style=font-size:16px; text-align:center;"">  How responsible do you feel concerning <br> the outcome ? </p>""",,04/05/2020,1.59E+12,04/05/2020,1.59E+12,
5df8411cfeea895e82d45d5d,9990844,25,m,scaleresp,20,1,2,2,1,7,13,0,994,1710.96,34,,280898,0.0-82.0,html-slider-response,82,"<p style=font-size:16px; text-align:center;"">  How responsible do you feel concerning <br> the outcome ? </p>""",,04/05/2020,1.59E+12,04/05/2020,1.59E+12,
5dadad152e8c52001757fbe6,4382999,20,F,scaleresp,6,1,2,1,2,7,14,,,,,,679318,0.0-203.0,html-slider-response,203,"<p style=font-size:16px; text-align:center;"">  How responsible do you feel concerning <br> the outcome ? </p>""",,04/05/2020,1.59E+12,04/05/2020,1.59E+12,
5da4db9d6599b0001542a7b0,7942662,21,M,scaleresp,13,2,1,2,1,19,20,0,1297,5644,100,,128265,0.0-12.0,html-slider-response,12,"<p style=font-size:16px; text-align:center;"">  How responsible do you feel concerning <br> the outcome ? </p>""",,04/05/2020,1.59E+12,04/05/2020,1.59E+12,
5ad8c254c0332a0001ec703c,7529639,26,F,scaleresp,12,1,1,2,2,11,13,0,905,3668.085,75,,492956,0.0-138.0,html-slider-response,138,"<p style=font-size:16px; text-align:center;"">  How responsible do you feel concerning <br> the outcome ? </p>""",,04/05/2020,1.59E+12,04/05/2020,1.59E+12,
5c5ab546903c7700010a4518,8042707,27,F,scaleresp,15,2,1,2,2,5,16,1,1067,1863.41,56,,489974,0.0-168.0,html-slider-response,168,"<p style=font-size:16px; text-align:center;"">  How responsible do you feel concerning <br> the outcome ? </p>""",,04/05/2020,1.59E+12,04/05/2020,1.59E+12,
57aaf19dec792e000181d028,3977321,30,f,scaleresp,16,1,1,1,1,3,4,0,938,2389.195,69,,276094,0.0-87.0,html-slider-response,87,"<p style=font-size:16px; text-align:center;"">  How responsible do you feel concerning <br> the outcome ? </p>""",,04/05/2020,1.59E+12,04/05/2020,1.59E+12,
5e64a832757e6121f493724c,7348245,19,M,scaleresp,14,1,1,2,2,7,18,0,592,4090,50,,658411,0.0-158.0,html-slider-response,158,"<p style=font-size:16px; text-align:center;"">  How responsible do you feel concerning <br> the outcome ? </p>""",,04/05/2020,1.59E+12,04/05/2020,1.59E+12,
5c2cdd5cded72200015eed0f,2995551,29,M,scaleresp,5,2,2,2,1,10,18,0,1078,5243.7,66,,255900,0.0-67.0,html-slider-response,67,"<p style=font-size:16px; text-align:center;"">  How responsible do you feel concerning <br> the outcome ? </p>""",,04/05/2020,1.59E+12,04/05/2020,1.59E+12,
5df8411cfeea895e82d45d5d,9990844,25,m,scaleresp,9,2,2,1,1,7,10,1,1341,2327.965,35,,293351,0.0-87.0,html-slider-response,87,"<p style=font-size:16px; text-align:center;"">  How responsible do you feel concerning <br> the outcome ? </p>""",,04/05/2020,1.59E+12,04/05/2020,1.59E+12,
5dadad152e8c52001757fbe6,4382999,20,F,scaleresp,17,2,1,1,2,5,12,,,,,,690114,0.0-208.0,html-slider-response,208,"<p style=font-size:16px; text-align:center;"">  How responsible do you feel concerning <br> the outcome ? </p>""",,04/05/2020,1.59E+12,04/05/2020,1.59E+12,
5da4db9d6599b0001542a7b0,7942662,21,M,scaleresp,11,2,1,2,1,11,12,1,1511,2330,62,,141054,0.0-17.0,html-slider-response,17,"<p style=font-size:16px; text-align:center;"">  How responsible do you feel concerning <br> the outcome ? </p>""",,04/05/2020,1.59E+12,04/05/2020,1.59E+12,
5ad8c254c0332a0001ec703c,7529639,26,F,scaleresp,18,1,1,1,2,5,17,1,1018,4952.11,76,,507498,0.0-143.0,html-slider-response,143,"<p style=font-size:16px; text-align:center;"">  How responsible do you feel concerning <br> the outcome ? </p>""",,04/05/2020,1.59E+12,04/05/2020,1.59E+12,
5c5ab546903c7700010a4518,8042707,27,F,scaleresp,2,1,2,2,2,17,18,1,946,1742.51,54,,501582,0.0-173.0,html-slider-response,173,"<p style=font-size:16px; text-align:center;"">  How responsible do you feel concerning <br> the outcome ? </p>""",,04/05/2020,1.59E+12,04/05/2020,1.59E+12,
57aaf19dec792e000181d028,3977321,30,f,scaleresp,17,2,1,1,1,7,20,0,1002,1949.605,34,,287918,0.0-92.0,html-slider-response,92,"<p style=font-size:16px; text-align:center;"">  How responsible do you feel concerning <br> the outcome ? </p>""",,04/05/2020,1.59E+12,04/05/2020,1.59E+12,
5e64a832757e6121f493724c,7348245,19,M,scaleresp,19,2,1,1,2,6,8,1,774,1696,84,,669819,0.0-163.0,html-slider-response,163,"<p style=font-size:16px; text-align:center;"">  How responsible do you feel concerning <br> the outcome ? </p>""",,04/05/2020,1.59E+12,04/05/2020,1.59E+12,
5c2cdd5cded72200015eed0f,2995551,29,M,scaleresp,18,1,1,1,1,3,7,1,1255,1529.2,69,,267438,0.0-72.0,html-slider-response,72,"<p style=font-size:16px; text-align:center;"">  How responsible do you feel concerning <br> the outcome ? </p>""",,04/05/2020,1.59E+12,04/05/2020,1.59E+12,
5df8411cfeea895e82d45d5d,9990844,25,m,scaleresp,14,1,1,2,1,13,17,1,1068,2603.225,66,,305643,0.0-92.0,html-slider-response,92,"<p style=font-size:16px; text-align:center;"">  How responsible do you feel concerning <br> the outcome ? </p>""",,04/05/2020,1.59E+12,04/05/2020,1.59E+12,
5da4db9d6599b0001542a7b0,7942662,21,M,scaleresp,4,1,2,2,1,1,9,1,1599,3454,73,,154651,0.0-22.0,html-slider-response,22,"<p style=font-size:16px; text-align:center;"">  How responsible do you feel concerning <br> the outcome ? </p>""",,04/05/2020,1.59E+12,04/05/2020,1.59E+12,
5ad8c254c0332a0001ec703c,7529639,26,F,scaleresp,13,2,1,2,2,1,5,1,1092,2020.285,72,,519526,0.0-148.0,html-slider-response,148,"<p style=font-size:16px; text-align:center;"">  How responsible do you feel concerning <br> the outcome ? </p>""",,04/05/2020,1.59E+12,04/05/2020,1.59E+12,
57aaf19dec792e000181d028,3977321,30,f,scaleresp,1,2,2,2,1,10,12,,,,,,298492,0.0-97.0,html-slider-response,97,"<p style=font-size:16px; text-align:center;"">  How responsible do you feel concerning <br> the outcome ? </p>""",,04/05/2020,1.59E+12,04/05/2020,1.59E+12,
5c5ab546903c7700010a4518,8042707,27,F,scaleresp,4,1,2,2,2,9,19,0,1100,2376.475,33,,513846,0.0-178.0,html-slider-response,178,"<p style=font-size:16px; text-align:center;"">  How responsible do you feel concerning <br> the outcome ? </p>""",,04/05/2020,1.59E+12,04/05/2020,1.59E+12,
5e64a832757e6121f493724c,7348245,19,M,scaleresp,9,2,2,1,2,15,16,0,906,3053,37,,682427,0.0-168.0,html-slider-response,168,"<p style=font-size:16px; text-align:center;"">  How responsible do you feel concerning <br> the outcome ? </p>""",,04/05/2020,1.59E+12,04/05/2020,1.59E+12,
5c2cdd5cded72200015eed0f,2995551,29,M,scaleresp,8,1,2,1,1,12,16,,,,,,278184,0.0-77.0,html-slider-response,77,"<p style=font-size:16px; text-align:center;"">  How responsible do you feel concerning <br> the outcome ? </p>""",,04/05/2020,1.59E+12,04/05/2020,1.59E+12,
5df8411cfeea895e82d45d5d,9990844,25,m,scaleresp,6,1,2,1,1,13,14,0,1181,2519.935,58,,317955,0.0-97.0,html-slider-response,97,"<p style=font-size:16px; text-align:center;"">  How responsible do you feel concerning <br> the outcome ? </p>""",,04/05/2020,1.59E+12,04/05/2020,1.59E+12,
57aaf19dec792e000181d028,3977321,30,f,scaleresp,7,2,2,1,1,10,18,,,,,,309383,0.0-102.0,html-slider-response,102,"<p style=font-size:16px; text-align:center;"">  How responsible do you feel concerning <br> the outcome ? </p>""",,04/05/2020,1.59E+12,04/05/2020,1.59E+12,
5da4db9d6599b0001542a7b0,7942662,21,M,scaleresp,17,2,1,1,1,6,17,1,1950,2104,100,,167565,0.0-27.0,html-slider-response,27,"<p style=font-size:16px; text-align:center;"">  How responsible do you feel concerning <br> the outcome ? </p>""",,04/05/2020,1.59E+12,04/05/2020,1.59E+12,
5ad8c254c0332a0001ec703c,7529639,26,F,scaleresp,7,2,2,1,2,1,13,1,1062,1657.615,73,,530964,0.0-153.0,html-slider-response,153,"<p style=font-size:16px; text-align:center;"">  How responsible do you feel concerning <br> the outcome ? </p>""",,04/05/2020,1.59E+12,04/05/2020,1.59E+12,
5c5ab546903c7700010a4518,8042707,27,F,scaleresp,12,1,1,2,2,2,12,1,915,1542.47,86,,525158,0.0-183.0,html-slider-response,183,"<p style=font-size:16px; text-align:center;"">  How responsible do you feel concerning <br> the outcome ? </p>""",,04/05/2020,1.59E+12,04/05/2020,1.59E+12,
5e64a832757e6121f493724c,7348245,19,M,scaleresp,11,2,1,2,2,3,4,0,1925,2346,77,,695449,0.0-173.0,html-slider-response,173,"<p style=font-size:16px; text-align:center;"">  How responsible do you feel concerning <br> the outcome ? </p>""",,04/05/2020,1.59E+12,04/05/2020,1.59E+12,
5c2cdd5cded72200015eed0f,2995551,29,M,scaleresp,20,1,2,2,1,15,17,,,,,,288914,0.0-82.0,html-slider-response,82,"<p style=font-size:16px; text-align:center;"">  How responsible do you feel concerning <br> the outcome ? </p>""",,04/05/2020,1.59E+12,04/05/2020,1.59E+12,
5df8411cfeea895e82d45d5d,9990844,25,m,scaleresp,7,2,2,1,1,5,16,0,1075,2728.435,61,,330322,0.0-102.0,html-slider-response,102,"<p style=font-size:16px; text-align:center;"">  How responsible do you feel concerning <br> the outcome ? </p>""",,04/05/2020,1.59E+12,04/05/2020,1.59E+12,
57aaf19dec792e000181d028,3977321,30,f,scaleresp,6,1,2,1,1,8,13,,,,,,320057,0.0-107.0,html-slider-response,107,"<p style=font-size:16px; text-align:center;"">  How responsible do you feel concerning <br> the outcome ? </p>""",,04/05/2020,1.59E+12,04/05/2020,1.59E+12,
5da4db9d6599b0001542a7b0,7942662,21,M,scaleresp,12,1,1,2,1,8,14,,,,,,178120,0.0-32.0,html-slider-response,32,"<p style=font-size:16px; text-align:center;"">  How responsible do you feel concerning <br> the outcome ? </p>""",,04/05/2020,1.59E+12,04/05/2020,1.59E+12,
5ad8c254c0332a0001ec703c,7529639,26,F,scaleresp,19,2,1,1,2,5,7,0,713,1409.7,75,,542010,0.0-158.0,html-slider-response,158,"<p style=font-size:16px; text-align:center;"">  How responsible do you feel concerning <br> the outcome ? </p>""",,04/05/2020,1.59E+12,04/05/2020,1.59E+12,
5c5ab546903c7700010a4518,8042707,27,F,scaleresp,14,1,1,2,2,2,10,0,1235,1314.415,63,,536278,0.0-188.0,html-slider-response,188,"<p style=font-size:16px; text-align:center;"">  How responsible do you feel concerning <br> the outcome ? </p>""",,04/05/2020,1.59E+12,04/05/2020,1.59E+12,
5e64a832757e6121f493724c,7348245,19,M,scaleresp,10,1,1,2,2,2,8,1,1525,2094,63,,707842,0.0-178.0,html-slider-response,178,"<p style=font-size:16px; text-align:center;"">  How responsible do you feel concerning <br> the outcome ? </p>""",,04/05/2020,1.59E+12,04/05/2020,1.59E+12,
5c2cdd5cded72200015eed0f,2995551,29,M,scaleresp,14,1,1,2,1,1,7,1,852,4742.4,79,,303321,0.0-87.0,html-slider-response,87,"<p style=font-size:16px; text-align:center;"">  How responsible do you feel concerning <br> the outcome ? </p>""",,04/05/2020,1.59E+12,04/05/2020,1.59E+12,
5df8411cfeea895e82d45d5d,9990844,25,m,scaleresp,13,2,1,2,1,9,17,1,1120,2581.73,58,,342914,0.0-107.0,html-slider-response,107,"<p style=font-size:16px; text-align:center;"">  How responsible do you feel concerning <br> the outcome ? </p>""",,04/05/2020,1.59E+12,04/05/2020,1.59E+12,
5dadad152e8c52001757fbe6,4382999,20,F,scaleresp,8,1,2,1,3,7,17,,,,,,739312,0.0-214.0,html-slider-response,214,"<p style=font-size:16px; text-align:center;"">  How responsible do you feel concerning <br> the outcome ? </p>""",,04/05/2020,1.59E+12,04/05/2020,1.59E+12,
5ad8c254c0332a0001ec703c,7529639,26,F,scaleresp,5,2,2,2,2,11,18,0,1158,1621.18,70,,553492,0.0-163.0,html-slider-response,163,"<p style=font-size:16px; text-align:center;"">  How responsible do you feel concerning <br> the outcome ? </p>""",,04/05/2020,1.59E+12,04/05/2020,1.59E+12,
5da4db9d6599b0001542a7b0,7942662,21,M,scaleresp,8,1,2,1,1,8,12,1,1765,2542,28,,190995,0.0-37.0,html-slider-response,37,"<p style=font-size:16px; text-align:center;"">  How responsible do you feel concerning <br> the outcome ? </p>""",,04/05/2020,1.59E+12,04/05/2020,1.59E+12,
5c5ab546903c7700010a4518,8042707,27,F,scaleresp,10,1,1,2,2,7,9,1,995,1492.605,69,,547470,0.0-193.0,html-slider-response,193,"<p style=font-size:16px; text-align:center;"">  How responsible do you feel concerning <br> the outcome ? </p>""",,04/05/2020,1.59E+12,04/05/2020,1.59E+12,
5c2cdd5cded72200015eed0f,2995551,29,M,scaleresp,3,2,2,2,1,12,15,,,,,,314446,0.0-92.0,html-slider-response,92,"<p style=font-size:16px; text-align:center;"">  How responsible do you feel concerning <br> the outcome ? </p>""",,04/05/2020,1.59E+12,04/05/2020,1.59E+12,
5e64a832757e6121f493724c,7348245,19,M,scaleresp,16,1,1,1,2,8,17,0,1078,3216,100,,720866,0.0-183.0,html-slider-response,183,"<p style=font-size:16px; text-align:center;"">  How responsible do you feel concerning <br> the outcome ? </p>""",,04/05/2020,1.59E+12,04/05/2020,1.59E+12,
5dadad152e8c52001757fbe6,4382999,20,F,scaleresp,12,1,1,2,3,3,17,,,,,,750208,0.0-219.0,html-slider-response,219,"<p style=font-size:16px; text-align:center;"">  How responsible do you feel concerning <br> the outcome ? </p>""",,04/05/2020,1.59E+12,04/05/2020,1.59E+12,
5df8411cfeea895e82d45d5d,9990844,25,m,scaleresp,20,1,2,2,2,3,13,0,1337,2445.69,39,,356224,0.0-113.0,html-slider-response,113,"<p style=font-size:16px; text-align:center;"">  How responsible do you feel concerning <br> the outcome ? </p>""",,04/05/2020,1.59E+12,04/05/2020,1.59E+12,
5da4db9d6599b0001542a7b0,7942662,21,M,scaleresp,3,2,2,2,1,4,8,,,,,,201923,0.0-42.0,html-slider-response,42,"<p style=font-size:16px; text-align:center;"">  How responsible do you feel concerning <br> the outcome ? </p>""",,04/05/2020,1.59E+12,04/05/2020,1.59E+12,
5ad8c254c0332a0001ec703c,7529639,26,F,scaleresp,17,2,1,1,2,1,15,1,1014,2008.81,73,,565206,0.0-168.0,html-slider-response,168,"<p style=font-size:16px; text-align:center;"">  How responsible do you feel concerning <br> the outcome ? </p>""",,04/05/2020,1.59E+12,04/05/2020,1.59E+12,
5c5ab546903c7700010a4518,8042707,27,F,scaleresp,19,2,1,1,2,10,18,0,1019,1738.295,38,,558975,0.0-198.0,html-slider-response,198,"<p style=font-size:16px; text-align:center;"">  How responsible do you feel concerning <br> the outcome ? </p>""",,04/05/2020,1.59E+12,04/05/2020,1.59E+12,
5dadad152e8c52001757fbe6,4382999,20,F,scaleresp,3,2,2,2,3,2,18,,,,,,761093,0.0-224.0,html-slider-response,224,"<p style=font-size:16px; text-align:center;"">  How responsible do you feel concerning <br> the outcome ? </p>""",,04/05/2020,1.59E+12,04/05/2020,1.59E+12,
5e64a832757e6121f493724c,7348245,19,M,scaleresp,2,1,2,2,2,2,12,1,1114,2621,57,,733570,0.0-188.0,html-slider-response,188,"<p style=font-size:16px; text-align:center;"">  How responsible do you feel concerning <br> the outcome ? </p>""",,04/05/2020,1.59E+12,04/05/2020,1.59E+12,
5c2cdd5cded72200015eed0f,2995551,29,M,scaleresp,4,1,2,2,1,11,13,1,1705,2625.7,75,,327663,0.0-97.0,html-slider-response,97,"<p style=font-size:16px; text-align:center;"">  How responsible do you feel concerning <br> the outcome ? </p>""",,04/05/2020,1.59E+12,04/05/2020,1.59E+12,
5df8411cfeea895e82d45d5d,9990844,25,m,scaleresp,6,1,2,1,2,2,13,0,920,1623.765,57,,367727,0.0-118.0,html-slider-response,118,"<p style=font-size:16px; text-align:center;"">  How responsible do you feel concerning <br> the outcome ? </p>""",,04/05/2020,1.59E+12,04/05/2020,1.59E+12,
5ad8c254c0332a0001ec703c,7529639,26,F,scaleresp,1,2,2,2,2,14,20,1,993,1604.105,78,,576552,0.0-173.0,html-slider-response,173,"<p style=font-size:16px; text-align:center;"">  How responsible do you feel concerning <br> the outcome ? </p>""",,04/05/2020,1.59E+12,04/05/2020,1.59E+12,
5da4db9d6599b0001542a7b0,7942662,21,M,scaleresp,9,2,2,1,1,4,18,1,1036,2010,0,,213721,0.0-47.0,html-slider-response,47,"<p style=font-size:16px; text-align:center;"">  How responsible do you feel concerning <br> the outcome ? </p>""",,04/05/2020,1.59E+12,04/05/2020,1.59E+12,
5c5ab546903c7700010a4518,8042707,27,F,scaleresp,1,2,2,2,2,12,13,0,656,1653.79,56,,570143,0.0-203.0,html-slider-response,203,"<p style=font-size:16px; text-align:center;"">  How responsible do you feel concerning <br> the outcome ? </p>""",,04/05/2020,1.59E+12,04/05/2020,1.59E+12,
5dadad152e8c52001757fbe6,4382999,20,F,scaleresp,20,1,2,2,3,6,15,,,,,,772012,0.0-229.0,html-slider-response,229,"<p style=font-size:16px; text-align:center;"">  How responsible do you feel concerning <br> the outcome ? </p>""",,04/05/2020,1.59E+12,04/05/2020,1.59E+12,
5c2cdd5cded72200015eed0f,2995551,29,M,scaleresp,19,2,1,1,1,8,16,0,1089,2291,68,,339935,0.0-102.0,html-slider-response,102,"<p style=font-size:16px; text-align:center;"">  How responsible do you feel concerning <br> the outcome ? </p>""",,04/05/2020,1.59E+12,04/05/2020,1.59E+12,
5e64a832757e6121f493724c,7348245,19,M,scaleresp,15,2,1,2,2,14,15,0,1059,3314,30,,746946,0.0-193.0,html-slider-response,193,"<p style=font-size:16px; text-align:center;"">  How responsible do you feel concerning <br> the outcome ? </p>""",,04/05/2020,1.59E+12,04/05/2020,1.59E+12,
5df8411cfeea895e82d45d5d,9990844,25,m,scaleresp,18,1,1,1,2,4,13,1,573,1572.385,62,,378575,0.0-123.0,html-slider-response,123,"<p style=font-size:16px; text-align:center;"">  How responsible do you feel concerning <br> the outcome ? </p>""",,04/05/2020,1.59E+12,04/05/2020,1.59E+12,
5ad8c254c0332a0001ec703c,7529639,26,F,scaleresp,16,1,1,1,2,9,13,0,897,1440.69,74,,587881,0.0-178.0,html-slider-response,178,"<p style=font-size:16px; text-align:center;"">  How responsible do you feel concerning <br> the outcome ? </p>""",,04/05/2020,1.59E+12,04/05/2020,1.59E+12,
5c5ab546903c7700010a4518,8042707,27,F,scaleresp,9,2,2,1,2,5,12,1,1056,1853.84,56,,581855,0.0-208.0,html-slider-response,208,"<p style=font-size:16px; text-align:center;"">  How responsible do you feel concerning <br> the outcome ? </p>""",,04/05/2020,1.59E+12,04/05/2020,1.59E+12,
5dadad152e8c52001757fbe6,4382999,20,F,scaleresp,11,2,1,2,3,3,18,,,,,,782591,0.0-234.0,html-slider-response,234,"<p style=font-size:16px; text-align:center;"">  How responsible do you feel concerning <br> the outcome ? </p>""",,04/05/2020,1.59E+12,04/05/2020,1.59E+12,
5c2cdd5cded72200015eed0f,2995551,29,M,scaleresp,11,2,1,2,1,4,8,,,,,,350705,0.0-107.0,html-slider-response,107,"<p style=font-size:16px; text-align:center;"">  How responsible do you feel concerning <br> the outcome ? </p>""",,04/05/2020,1.59E+12,04/05/2020,1.59E+12,
5df8411cfeea895e82d45d5d,9990844,25,m,scaleresp,3,2,2,2,2,5,10,1,909,1578.28,39,,389935,0.0-128.0,html-slider-response,128,"<p style=font-size:16px; text-align:center;"">  How responsible do you feel concerning <br> the outcome ? </p>""",,04/05/2020,1.59E+12,04/05/2020,1.59E+12,
5da4db9d6599b0001542a7b0,7942662,21,M,scaleresp,6,1,2,1,1,6,18,0,909,11618,74,,235211,0.0-52.0,html-slider-response,52,"<p style=font-size:16px; text-align:center;"">  How responsible do you feel concerning <br> the outcome ? </p>""",,04/05/2020,1.59E+12,04/05/2020,1.59E+12,
5e64a832757e6121f493724c,7348245,19,M,scaleresp,1,2,2,2,2,7,17,0,1203,2076,43,,759218,0.0-198.0,html-slider-response,198,"<p style=font-size:16px; text-align:center;"">  How responsible do you feel concerning <br> the outcome ? </p>""",,04/05/2020,1.59E+12,04/05/2020,1.59E+12,
5ad8c254c0332a0001ec703c,7529639,26,F,scaleresp,14,1,1,2,2,12,15,0,834,1359.16,79,,599060,0.0-183.0,html-slider-response,183,"<p style=font-size:16px; text-align:center;"">  How responsible do you feel concerning <br> the outcome ? </p>""",,04/05/2020,1.59E+12,04/05/2020,1.59E+12,
5c5ab546903c7700010a4518,8042707,27,F,scaleresp,19,2,1,1,3,2,4,1,761,1819.155,81,,593927,0.0-214.0,html-slider-response,214,"<p style=font-size:16px; text-align:center;"">  How responsible do you feel concerning <br> the outcome ? </p>""",,04/05/2020,1.59E+12,04/05/2020,1.59E+12,
5dadad152e8c52001757fbe6,4382999,20,F,scaleresp,13,2,1,2,3,1,4,,,,,,793240,0.0-239.0,html-slider-response,239,"<p style=font-size:16px; text-align:center;"">  How responsible do you feel concerning <br> the outcome ? </p>""",,04/05/2020,1.59E+12,04/05/2020,1.59E+12,
5df8411cfeea895e82d45d5d,9990844,25,m,scaleresp,8,1,2,1,2,6,15,0,1059,1392.505,64,,400942,0.0-133.0,html-slider-response,133,"<p style=font-size:16px; text-align:center;"">  How responsible do you feel concerning <br> the outcome ? </p>""",,04/05/2020,1.59E+12,04/05/2020,1.59E+12,
5c2cdd5cded72200015eed0f,2995551,29,M,scaleresp,8,1,2,1,2,3,18,0,1788,1831.9,86,,364137,0.0-113.0,html-slider-response,113,"<p style=font-size:16px; text-align:center;"">  How responsible do you feel concerning <br> the outcome ? </p>""",,04/05/2020,1.59E+12,04/05/2020,1.59E+12,
5ad8c254c0332a0001ec703c,7529639,26,F,scaleresp,10,1,1,2,2,12,13,0,919,1789.63,79,,610496,0.0-188.0,html-slider-response,188,"<p style=font-size:16px; text-align:center;"">  How responsible do you feel concerning <br> the outcome ? </p>""",,04/05/2020,1.59E+12,04/05/2020,1.59E+12,
5da4db9d6599b0001542a7b0,7942662,21,M,scaleresp,1,2,2,2,1,17,19,1,1536,1925,29,,247213,0.0-57.0,html-slider-response,57,"<p style=font-size:16px; text-align:center;"">  How responsible do you feel concerning <br> the outcome ? </p>""",,04/05/2020,1.59E+12,04/05/2020,1.59E+12,
5c73e8a67fafbd001147187b,9797764,38,M,scaleresp,4,1,2,2,2,6,19,1,931,3127,51,,791797,0.0-113.0,html-slider-response,113,"<p style=font-size:16px; text-align:center;"">  How responsible do you feel concerning <br> the outcome ? </p>""",,04/05/2020,1.59E+12,04/05/2020,1.59E+12,
5e64a832757e6121f493724c,7348245,19,M,scaleresp,8,1,2,1,2,1,4,0,1679,2024,29,,771946,0.0-203.0,html-slider-response,203,"<p style=font-size:16px; text-align:center;"">  How responsible do you feel concerning <br> the outcome ? </p>""",,04/05/2020,1.59E+12,04/05/2020,1.59E+12,
5c5ab546903c7700010a4518,8042707,27,F,scaleresp,18,1,1,1,3,11,18,1,837,1595.685,79,,605023,0.0-219.0,html-slider-response,219,"<p style=font-size:16px; text-align:center;"">  How responsible do you feel concerning <br> the outcome ? </p>""",,04/05/2020,1.59E+12,04/05/2020,1.59E+12,
5dadad152e8c52001757fbe6,4382999,20,F,scaleresp,4,1,2,2,3,5,18,,,,,,803950,0.0-244.0,html-slider-response,244,"<p style=font-size:16px; text-align:center;"">  How responsible do you feel concerning <br> the outcome ? </p>""",,04/05/2020,1.59E+12,04/05/2020,1.59E+12,
5c2cdd5cded72200015eed0f,2995551,29,M,scaleresp,15,2,1,2,2,2,20,1,889,1478.7,81,,375241,0.0-118.0,html-slider-response,118,"<p style=font-size:16px; text-align:center;"">  How responsible do you feel concerning <br> the outcome ? </p>""",,04/05/2020,1.59E+12,04/05/2020,1.59E+12,
5ad8c254c0332a0001ec703c,7529639,26,F,scaleresp,15,2,1,2,2,14,18,1,770,1734.725,76,,621638,0.0-193.0,html-slider-response,193,"<p style=font-size:16px; text-align:center;"">  How responsible do you feel concerning <br> the outcome ? </p>""",,04/05/2020,1.59E+12,04/05/2020,1.59E+12,
5df8411cfeea895e82d45d5d,9990844,25,m,scaleresp,13,2,1,2,2,12,16,0,1390,3340.83,61,,414535,0.0-138.0,html-slider-response,138,"<p style=font-size:16px; text-align:center;"">  How responsible do you feel concerning <br> the outcome ? </p>""",,04/05/2020,1.59E+12,04/05/2020,1.59E+12,
5e64a832757e6121f493724c,7348245,19,M,scaleresp,4,1,2,2,2,4,19,0,826,2226,27,,783938,0.0-208.0,html-slider-response,208,"<p style=font-size:16px; text-align:center;"">  How responsible do you feel concerning <br> the outcome ? </p>""",,04/05/2020,1.59E+12,04/05/2020,1.59E+12,
5c73e8a67fafbd001147187b,9797764,38,M,scaleresp,5,2,2,2,2,3,15,0,961,2216,53,,803862,0.0-118.0,html-slider-response,118,"<p style=font-size:16px; text-align:center;"">  How responsible do you feel concerning <br> the outcome ? </p>""",,04/05/2020,1.59E+12,04/05/2020,1.59E+12,
5c5ab546903c7700010a4518,8042707,27,F,scaleresp,4,1,2,2,3,2,9,1,904,1537.05,21,,616342,0.0-224.0,html-slider-response,224,"<p style=font-size:16px; text-align:center;"">  How responsible do you feel concerning <br> the outcome ? </p>""",,04/05/2020,1.59E+12,04/05/2020,1.59E+12,
5da4db9d6599b0001542a7b0,7942662,21,M,scaleresp,15,2,1,2,1,13,17,0,1109,4652,80,,261789,0.0-62.0,html-slider-response,62,"<p style=font-size:16px; text-align:center;"">  How responsible do you feel concerning <br> the outcome ? </p>""",,04/05/2020,1.59E+12,04/05/2020,1.59E+12,
5dadad152e8c52001757fbe6,4382999,20,F,scaleresp,2,1,2,2,3,11,14,,,,,,814510,0.0-249.0,html-slider-response,249,"<p style=font-size:16px; text-align:center;"">  How responsible do you feel concerning <br> the outcome ? </p>""",,04/05/2020,1.59E+12,04/05/2020,1.59E+12,
5c2cdd5cded72200015eed0f,2995551,29,M,scaleresp,17,2,1,1,2,12,13,0,1150,1768,74,,386983,0.0-123.0,html-slider-response,123,"<p style=font-size:16px; text-align:center;"">  How responsible do you feel concerning <br> the outcome ? </p>""",,04/05/2020,1.59E+12,04/05/2020,1.59E+12,
5ad8c254c0332a0001ec703c,7529639,26,F,scaleresp,2,1,2,2,2,18,19,0,1293,1461.725,81,,633178,0.0-198.0,html-slider-response,198,"<p style=font-size:16px; text-align:center;"">  How responsible do you feel concerning <br> the outcome ? </p>""",,04/05/2020,1.59E+12,04/05/2020,1.59E+12,
5df8411cfeea895e82d45d5d,9990844,25,m,scaleresp,1,2,2,2,2,6,20,1,721,2243.975,42,,426055,0.0-143.0,html-slider-response,143,"<p style=font-size:16px; text-align:center;"">  How responsible do you feel concerning <br> the outcome ? </p>""",,04/05/2020,1.59E+12,04/05/2020,1.59E+12,
5c5ab546903c7700010a4518,8042707,27,F,scaleresp,8,1,2,1,3,1,11,1,840,1291.975,24,,627270,0.0-229.0,html-slider-response,229,"<p style=font-size:16px; text-align:center;"">  How responsible do you feel concerning <br> the outcome ? </p>""",,04/05/2020,1.59E+12,04/05/2020,1.59E+12,
5c73e8a67fafbd001147187b,9797764,38,M,scaleresp,15,2,1,2,2,3,17,0,1206,2178,54,,815847,0.0-123.0,html-slider-response,123,"<p style=font-size:16px; text-align:center;"">  How responsible do you feel concerning <br> the outcome ? </p>""",,04/05/2020,1.59E+12,04/05/2020,1.59E+12,
5da4db9d6599b0001542a7b0,7942662,21,M,scaleresp,14,1,1,2,1,6,20,,,,,,272672,0.0-67.0,html-slider-response,67,"<p style=font-size:16px; text-align:center;"">  How responsible do you feel concerning <br> the outcome ? </p>""",,04/05/2020,1.59E+12,04/05/2020,1.59E+12,
5dadad152e8c52001757fbe6,4382999,20,F,scaleresp,19,2,1,1,3,1,17,,,,,,825087,0.0-254.0,html-slider-response,254,"<p style=font-size:16px; text-align:center;"">  How responsible do you feel concerning <br> the outcome ? </p>""",,04/05/2020,1.59E+12,04/05/2020,1.59E+12,
5ad8c254c0332a0001ec703c,7529639,26,F,scaleresp,11,2,1,2,2,13,17,1,988,1817.855,79,,644706,0.0-203.0,html-slider-response,203,"<p style=font-size:16px; text-align:center;"">  How responsible do you feel concerning <br> the outcome ? </p>""",,04/05/2020,1.59E+12,04/05/2020,1.59E+12,
5c2cdd5cded72200015eed0f,2995551,29,M,scaleresp,1,2,2,2,2,10,12,1,1117,1912.9,75,,398889,0.0-128.0,html-slider-response,128,"<p style=font-size:16px; text-align:center;"">  How responsible do you feel concerning <br> the outcome ? </p>""",,04/05/2020,1.59E+12,04/05/2020,1.59E+12,
5df8411cfeea895e82d45d5d,9990844,25,m,scaleresp,7,2,2,1,2,11,19,0,1076,1690.71,67,,437543,0.0-148.0,html-slider-response,148,"<p style=font-size:16px; text-align:center;"">  How responsible do you feel concerning <br> the outcome ? </p>""",,04/05/2020,1.59E+12,04/05/2020,1.59E+12,
5c5ab546903c7700010a4518,8042707,27,F,scaleresp,12,1,1,2,3,10,16,0,1126,1749.98,40,,639014,0.0-234.0,html-slider-response,234,"<p style=font-size:16px; text-align:center;"">  How responsible do you feel concerning <br> the outcome ? </p>""",,04/05/2020,1.59E+12,04/05/2020,1.59E+12,
5da4db9d6599b0001542a7b0,7942662,21,M,scaleresp,2,1,2,2,1,12,14,,,,,,283397,0.0-72.0,html-slider-response,72,"<p style=font-size:16px; text-align:center;"">  How responsible do you feel concerning <br> the outcome ? </p>""",,04/05/2020,1.59E+12,04/05/2020,1.59E+12,
5c73e8a67fafbd001147187b,9797764,38,M,scaleresp,18,1,1,1,2,16,20,0,1292,2136,54,,827908,0.0-128.0,html-slider-response,128,"<p style=font-size:16px; text-align:center;"">  How responsible do you feel concerning <br> the outcome ? </p>""",,04/05/2020,1.59E+12,04/05/2020,1.59E+12,
5dadad152e8c52001757fbe6,4382999,20,F,scaleresp,10,1,1,2,3,12,20,,,,,,836111,0.0-259.0,html-slider-response,259,"<p style=font-size:16px; text-align:center;"">  How responsible do you feel concerning <br> the outcome ? </p>""",,04/05/2020,1.59E+12,04/05/2020,1.59E+12,
5ad8c254c0332a0001ec703c,7529639,26,F,scaleresp,3,2,2,2,2,8,19,0,558,1880.38,76,,656012,0.0-208.0,html-slider-response,208,"<p style=font-size:16px; text-align:center;"">  How responsible do you feel concerning <br> the outcome ? </p>""",,04/05/2020,1.59E+12,04/05/2020,1.59E+12,
5c2cdd5cded72200015eed0f,2995551,29,M,scaleresp,16,1,1,1,2,11,18,1,2006,1332.4,69,,411132,0.0-133.0,html-slider-response,133,"<p style=font-size:16px; text-align:center;"">  How responsible do you feel concerning <br> the outcome ? </p>""",,04/05/2020,1.59E+12,04/05/2020,1.59E+12,
5dadad152e8c52001757fbe6,4382999,20,F,scaleresp,15,2,1,2,3,7,19,,,,,,846919,0.0-264.0,html-slider-response,264,"<p style=font-size:16px; text-align:center;"">  How responsible do you feel concerning <br> the outcome ? </p>""",,04/05/2020,1.59E+12,04/05/2020,1.59E+12,
5c5ab546903c7700010a4518,8042707,27,F,scaleresp,6,1,2,1,3,5,18,0,1006,2995.445,57,,651918,0.0-239.0,html-slider-response,239,"<p style=font-size:16px; text-align:center;"">  How responsible do you feel concerning <br> the outcome ? </p>""",,04/05/2020,1.59E+12,04/05/2020,1.59E+12,
5c73e8a67fafbd001147187b,9797764,38,M,scaleresp,10,1,1,2,2,3,18,0,1137,2562,55,,840245,0.0-133.0,html-slider-response,133,"<p style=font-size:16px; text-align:center;"">  How responsible do you feel concerning <br> the outcome ? </p>""",,04/05/2020,1.59E+12,04/05/2020,1.59E+12,
5df8411cfeea895e82d45d5d,9990844,25,m,scaleresp,4,1,2,2,2,6,13,0,1237,3948.705,38,,451615,0.0-153.0,html-slider-response,153,"<p style=font-size:16px; text-align:center;"">  How responsible do you feel concerning <br> the outcome ? </p>""",,04/05/2020,1.59E+12,04/05/2020,1.59E+12,
5da4db9d6599b0001542a7b0,7942662,21,M,scaleresp,20,1,2,2,1,7,10,1,1109,10401,69,,303627,0.0-77.0,html-slider-response,77,"<p style=font-size:16px; text-align:center;"">  How responsible do you feel concerning <br> the outcome ? </p>""",,04/05/2020,1.59E+12,04/05/2020,1.59E+12,
5c2cdd5cded72200015eed0f,2995551,29,M,scaleresp,9,2,2,1,2,14,17,1,1106,1374,77,,422204,0.0-138.0,html-slider-response,138,"<p style=font-size:16px; text-align:center;"">  How responsible do you feel concerning <br> the outcome ? </p>""",,04/05/2020,1.59E+12,04/05/2020,1.59E+12,
5ad8c254c0332a0001ec703c,7529639,26,F,scaleresp,13,2,1,2,3,16,18,0,716,2457.845,78,,668776,0.0-214.0,html-slider-response,214,"<p style=font-size:16px; text-align:center;"">  How responsible do you feel concerning <br> the outcome ? </p>""",,04/05/2020,1.59E+12,04/05/2020,1.59E+12,
5dadad152e8c52001757fbe6,4382999,20,F,scaleresp,14,1,1,2,3,6,8,,,,,,857633,0.0-269.0,html-slider-response,269,"<p style=font-size:16px; text-align:center;"">  How responsible do you feel concerning <br> the outcome ? </p>""",,04/05/2020,1.59E+12,04/05/2020,1.59E+12,
5c5ab546903c7700010a4518,8042707,27,F,scaleresp,5,2,2,2,3,3,19,0,878,1380.825,64,,663174,0.0-244.0,html-slider-response,244,"<p style=font-size:16px; text-align:center;"">  How responsible do you feel concerning <br> the outcome ? </p>""",,04/05/2020,1.59E+12,04/05/2020,1.59E+12,
5c73e8a67fafbd001147187b,9797764,38,M,scaleresp,2,1,2,2,2,4,17,0,1288,2234,53,,852527,0.0-138.0,html-slider-response,138,"<p style=font-size:16px; text-align:center;"">  How responsible do you feel concerning <br> the outcome ? </p>""",,04/05/2020,1.59E+12,04/05/2020,1.59E+12,
5df8411cfeea895e82d45d5d,9990844,25,m,scaleresp,11,2,1,2,2,4,5,0,1300,2665.08,57,,464286,0.0-158.0,html-slider-response,158,"<p style=font-size:16px; text-align:center;"">  How responsible do you feel concerning <br> the outcome ? </p>""",,04/05/2020,1.59E+12,04/05/2020,1.59E+12,
5da4db9d6599b0001542a7b0,7942662,21,M,scaleresp,7,2,2,1,1,1,19,,,,,,314561,0.0-82.0,html-slider-response,82,"<p style=font-size:16px; text-align:center;"">  How responsible do you feel concerning <br> the outcome ? </p>""",,04/05/2020,1.59E+12,04/05/2020,1.59E+12,
5c2cdd5cded72200015eed0f,2995551,29,M,scaleresp,3,2,2,2,2,6,16,1,1099,1584.6,83,,433866,0.0-143.0,html-slider-response,143,"<p style=font-size:16px; text-align:center;"">  How responsible do you feel concerning <br> the outcome ? </p>""",,04/05/2020,1.59E+12,04/05/2020,1.59E+12,
5dadad152e8c52001757fbe6,4382999,20,F,scaleresp,17,2,1,1,3,9,18,,,,,,868508,0.0-274.0,html-slider-response,274,"<p style=font-size:16px; text-align:center;"">  How responsible do you feel concerning <br> the outcome ? </p>""",,04/05/2020,1.59E+12,04/05/2020,1.59E+12,
5ad8c254c0332a0001ec703c,7529639,26,F,scaleresp,6,1,2,1,3,1,6,1,782,2183.85,100,,680354,0.0-219.0,html-slider-response,219,"<p style=font-size:16px; text-align:center;"">  How responsible do you feel concerning <br> the outcome ? </p>""",,04/05/2020,1.59E+12,04/05/2020,1.59E+12,
5c5ab546903c7700010a4518,8042707,27,F,scaleresp,20,1,2,2,3,8,14,1,1497,2004.665,59,,675254,0.0-249.0,html-slider-response,249,"<p style=font-size:16px; text-align:center;"">  How responsible do you feel concerning <br> the outcome ? </p>""",,04/05/2020,1.59E+12,04/05/2020,1.59E+12,
5c73e8a67fafbd001147187b,9797764,38,M,scaleresp,16,1,1,1,2,17,20,0,1111,1948,56,,864574,0.0-143.0,html-slider-response,143,"<p style=font-size:16px; text-align:center;"">  How responsible do you feel concerning <br> the outcome ? </p>""",,04/05/2020,1.59E+12,04/05/2020,1.59E+12,
5df8411cfeea895e82d45d5d,9990844,25,m,scaleresp,2,1,2,2,2,4,9,1,839,2293.5,42,,475960,0.0-163.0,html-slider-response,163,"<p style=font-size:16px; text-align:center;"">  How responsible do you feel concerning <br> the outcome ? </p>""",,04/05/2020,1.59E+12,04/05/2020,1.59E+12,
5da4db9d6599b0001542a7b0,7942662,21,M,scaleresp,18,1,1,1,1,14,17,0,1166,2784,76,,327309,0.0-87.0,html-slider-response,87,"<p style=font-size:16px; text-align:center;"">  How responsible do you feel concerning <br> the outcome ? </p>""",,04/05/2020,1.59E+12,04/05/2020,1.59E+12,
5dadad152e8c52001757fbe6,4382999,20,F,scaleresp,18,1,1,1,3,15,20,,,,,,879387,0.0-279.0,html-slider-response,279,"<p style=font-size:16px; text-align:center;"">  How responsible do you feel concerning <br> the outcome ? </p>""",,04/05/2020,1.59E+12,04/05/2020,1.59E+12,
5c2cdd5cded72200015eed0f,2995551,29,M,scaleresp,10,1,1,2,2,4,9,1,953,1580.1,82,,445418,0.0-148.0,html-slider-response,148,"<p style=font-size:16px; text-align:center;"">  How responsible do you feel concerning <br> the outcome ? </p>""",,04/05/2020,1.59E+12,04/05/2020,1.59E+12,
5ad8c254c0332a0001ec703c,7529639,26,F,scaleresp,12,1,1,2,3,12,20,0,721,1985.61,100,,692000,0.0-224.0,html-slider-response,224,"<p style=font-size:16px; text-align:center;"">  How responsible do you feel concerning <br> the outcome ? </p>""",,04/05/2020,1.59E+12,04/05/2020,1.59E+12,
5c5ab546903c7700010a4518,8042707,27,F,scaleresp,10,1,1,2,3,9,13,0,1059,1717.035,62,,686590,0.0-254.0,html-slider-response,254,"<p style=font-size:16px; text-align:center;"">  How responsible do you feel concerning <br> the outcome ? </p>""",,04/05/2020,1.59E+12,04/05/2020,1.59E+12,
5df8411cfeea895e82d45d5d,9990844,25,m,scaleresp,5,2,2,2,2,3,20,1,803,3565.245,24,,489127,0.0-168.0,html-slider-response,168,"<p style=font-size:16px; text-align:center;"">  How responsible do you feel concerning <br> the outcome ? </p>""",,04/05/2020,1.59E+12,04/05/2020,1.59E+12,
5c2cdd5cded72200015eed0f,2995551,29,M,scaleresp,14,1,1,2,2,5,15,,,,,,456073,0.0-153.0,html-slider-response,153,"<p style=font-size:16px; text-align:center;"">  How responsible do you feel concerning <br> the outcome ? </p>""",,04/05/2020,1.59E+12,04/05/2020,1.59E+12,
5dadad152e8c52001757fbe6,4382999,20,F,scaleresp,6,1,2,1,3,6,18,,,,,,890308,0.0-284.0,html-slider-response,284,"<p style=font-size:16px; text-align:center;"">  How responsible do you feel concerning <br> the outcome ? </p>""",,04/05/2020,1.59E+12,04/05/2020,1.59E+12,
5da4db9d6599b0001542a7b0,7942662,21,M,scaleresp,19,2,1,1,1,12,19,1,1271,1750,100,,338923,0.0-92.0,html-slider-response,92,"<p style=font-size:16px; text-align:center;"">  How responsible do you feel concerning <br> the outcome ? </p>""",,04/05/2020,1.59E+12,04/05/2020,1.59E+12,
5ad8c254c0332a0001ec703c,7529639,26,F,scaleresp,4,1,2,2,3,16,19,1,629,1677.385,100,,702882,0.0-229.0,html-slider-response,229,"<p style=font-size:16px; text-align:center;"">  How responsible do you feel concerning <br> the outcome ? </p>""",,04/05/2020,1.59E+12,04/05/2020,1.59E+12,
5e64a832757e6121f493724c,7348245,19,M,scaleresp,2,1,2,2,3,6,13,1,1211,1512,33,,863514,0.0-214.0,html-slider-response,214,"<p style=font-size:16px; text-align:center;"">  How responsible do you feel concerning <br> the outcome ? </p>""",,04/05/2020,1.59E+12,04/05/2020,1.59E+12,
5c5ab546903c7700010a4518,8042707,27,F,scaleresp,2,1,2,2,3,8,9,0,880,1599.295,37,,697655,0.0-259.0,html-slider-response,259,"<p style=font-size:16px; text-align:center;"">  How responsible do you feel concerning <br> the outcome ? </p>""",,04/05/2020,1.59E+12,04/05/2020,1.59E+12,
5df8411cfeea895e82d45d5d,9990844,25,m,scaleresp,14,1,1,2,2,1,16,0,1085,2240.66,75,,501008,0.0-173.0,html-slider-response,173,"<p style=font-size:16px; text-align:center;"">  How responsible do you feel concerning <br> the outcome ? </p>""",,04/05/2020,1.59E+12,04/05/2020,1.59E+12,
5dadad152e8c52001757fbe6,4382999,20,F,scaleresp,5,2,2,2,3,2,12,,,,,,901087,0.0-289.0,html-slider-response,289,"<p style=font-size:16px; text-align:center;"">  How responsible do you feel concerning <br> the outcome ? </p>""",,04/05/2020,1.59E+12,04/05/2020,1.59E+12,
5da4db9d6599b0001542a7b0,7942662,21,M,scaleresp,10,1,1,2,1,3,12,,,,,,349782,0.0-97.0,html-slider-response,97,"<p style=font-size:16px; text-align:center;"">  How responsible do you feel concerning <br> the outcome ? </p>""",,04/05/2020,1.59E+12,04/05/2020,1.59E+12,
5c2cdd5cded72200015eed0f,2995551,29,M,scaleresp,18,1,1,1,2,1,6,1,1621,1541.9,77,,468255,0.0-158.0,html-slider-response,158,"<p style=font-size:16px; text-align:center;"">  How responsible do you feel concerning <br> the outcome ? </p>""",,04/05/2020,1.59E+12,04/05/2020,1.59E+12,
5e64a832757e6121f493724c,7348245,19,M,scaleresp,20,1,2,2,3,18,20,0,806,1651,32,,874643,0.0-219.0,html-slider-response,219,"<p style=font-size:16px; text-align:center;"">  How responsible do you feel concerning <br> the outcome ? </p>""",,04/05/2020,1.59E+12,04/05/2020,1.59E+12,
5ad8c254c0332a0001ec703c,7529639,26,F,scaleresp,16,1,1,1,3,9,17,0,1166,2154.91,100,,714976,0.0-234.0,html-slider-response,234,"<p style=font-size:16px; text-align:center;"">  How responsible do you feel concerning <br> the outcome ? </p>""",,04/05/2020,1.59E+12,04/05/2020,1.59E+12,
5c5ab546903c7700010a4518,8042707,27,F,scaleresp,7,2,2,1,3,4,16,0,813,2732.765,15,,709998,0.0-264.0,html-slider-response,264,"<p style=font-size:16px; text-align:center;"">  How responsible do you feel concerning <br> the outcome ? </p>""",,04/05/2020,1.59E+12,04/05/2020,1.59E+12,
5c73e8a67fafbd001147187b,9797764,38,M,scaleresp,20,1,2,2,2,10,15,0,1783,22813,53,,897810,0.0-148.0,html-slider-response,148,"<p style=font-size:16px; text-align:center;"">  How responsible do you feel concerning <br> the outcome ? </p>""",,04/05/2020,1.59E+12,04/05/2020,1.59E+12,
5df8411cfeea895e82d45d5d,9990844,25,m,scaleresp,15,2,1,2,2,1,13,0,1444,1741.395,60,,512831,0.0-178.0,html-slider-response,178,"<p style=font-size:16px; text-align:center;"">  How responsible do you feel concerning <br> the outcome ? </p>""",,04/05/2020,1.59E+12,04/05/2020,1.59E+12,
5dadad152e8c52001757fbe6,4382999,20,F,scaleresp,7,2,2,1,3,1,15,,,,,,911684,0.0-294.0,html-slider-response,294,"<p style=font-size:16px; text-align:center;"">  How responsible do you feel concerning <br> the outcome ? </p>""",,04/05/2020,1.59E+12,04/05/2020,1.59E+12,
5da4db9d6599b0001542a7b0,7942662,21,M,scaleresp,16,1,1,1,1,8,20,0,1392,1484,100,,361618,0.0-102.0,html-slider-response,102,"<p style=font-size:16px; text-align:center;"">  How responsible do you feel concerning <br> the outcome ? </p>""",,04/05/2020,1.59E+12,04/05/2020,1.59E+12,
5c2cdd5cded72200015eed0f,2995551,29,M,scaleresp,6,1,2,1,2,1,8,0,1041,1351.9,69,,479351,0.0-163.0,html-slider-response,163,"<p style=font-size:16px; text-align:center;"">  How responsible do you feel concerning <br> the outcome ? </p>""",,04/05/2020,1.59E+12,04/05/2020,1.59E+12,
5e64a832757e6121f493724c,7348245,19,M,scaleresp,19,2,1,1,3,1,12,1,1044,2040,22,,886466,0.0-224.0,html-slider-response,224,"<p style=font-size:16px; text-align:center;"">  How responsible do you feel concerning <br> the outcome ? </p>""",,04/05/2020,1.59E+12,04/05/2020,1.59E+12,
5ad8c254c0332a0001ec703c,7529639,26,F,scaleresp,3,2,2,2,3,10,11,1,677,1720.65,91,,726152,0.0-239.0,html-slider-response,239,"<p style=font-size:16px; text-align:center;"">  How responsible do you feel concerning <br> the outcome ? </p>""",,04/05/2020,1.59E+12,04/05/2020,1.59E+12,
5c5ab546903c7700010a4518,8042707,27,F,scaleresp,14,1,1,2,3,1,16,1,899,1283.07,79,,721022,0.0-269.0,html-slider-response,269,"<p style=font-size:16px; text-align:center;"">  How responsible do you feel concerning <br> the outcome ? </p>""",,04/05/2020,1.59E+12,04/05/2020,1.59E+12,
5c73e8a67fafbd001147187b,9797764,38,M,scaleresp,11,2,1,2,2,11,18,0,1058,2030,52,,909873,0.0-153.0,html-slider-response,153,"<p style=font-size:16px; text-align:center;"">  How responsible do you feel concerning <br> the outcome ? </p>""",,04/05/2020,1.59E+12,04/05/2020,1.59E+12,
5df8411cfeea895e82d45d5d,9990844,25,m,scaleresp,12,1,1,2,2,4,17,1,1037,1930.87,64,,524522,0.0-183.0,html-slider-response,183,"<p style=font-size:16px; text-align:center;"">  How responsible do you feel concerning <br> the outcome ? </p>""",,04/05/2020,1.59E+12,04/05/2020,1.59E+12,
5dadad152e8c52001757fbe6,4382999,20,F,scaleresp,1,2,2,2,3,12,13,,,,,,922343,0.0-299.0,html-slider-response,299,"<p style=font-size:16px; text-align:center;"">  How responsible do you feel concerning <br> the outcome ? </p>""",,04/05/2020,1.59E+12,04/05/2020,1.59E+12,
5da4db9d6599b0001542a7b0,7942662,21,M,scaleresp,5,2,2,2,1,4,19,0,1022,2294,53,,373762,0.0-107.0,html-slider-response,107,"<p style=font-size:16px; text-align:center;"">  How responsible do you feel concerning <br> the outcome ? </p>""",,04/05/2020,1.59E+12,04/05/2020,1.59E+12,
5c2cdd5cded72200015eed0f,2995551,29,M,scaleresp,19,2,1,1,2,7,9,1,1068,2109.2,75,,491357,0.0-168.0,html-slider-response,168,"<p style=font-size:16px; text-align:center;"">  How responsible do you feel concerning <br> the outcome ? </p>""",,04/05/2020,1.59E+12,04/05/2020,1.59E+12,
5ad8c254c0332a0001ec703c,7529639,26,F,scaleresp,14,1,1,2,3,5,13,0,933,1762.27,94,,737556,0.0-244.0,html-slider-response,244,"<p style=font-size:16px; text-align:center;"">  How responsible do you feel concerning <br> the outcome ? </p>""",,04/05/2020,1.59E+12,04/05/2020,1.59E+12,
5e64a832757e6121f493724c,7348245,19,M,scaleresp,11,2,1,2,3,8,14,0,867,2138,19,,898107,0.0-229.0,html-slider-response,229,"<p style=font-size:16px; text-align:center;"">  How responsible do you feel concerning <br> the outcome ? </p>""",,04/05/2020,1.59E+12,04/05/2020,1.59E+12,
5c5ab546903c7700010a4518,8042707,27,F,scaleresp,16,1,1,1,3,12,16,0,720,1947.79,87,,732470,0.0-274.0,html-slider-response,274,"<p style=font-size:16px; text-align:center;"">  How responsible do you feel concerning <br> the outcome ? </p>""",,04/05/2020,1.59E+12,04/05/2020,1.59E+12,
5c73e8a67fafbd001147187b,9797764,38,M,scaleresp,9,2,2,1,2,13,19,0,1072,2317,53,,922208,0.0-158.0,html-slider-response,158,"<p style=font-size:16px; text-align:center;"">  How responsible do you feel concerning <br> the outcome ? </p>""",,04/05/2020,1.59E+12,04/05/2020,1.59E+12,
5dadad152e8c52001757fbe6,4382999,20,F,scaleresp,9,2,2,1,3,7,15,,,,,,933197,0.0-304.0,html-slider-response,304,"<p style=font-size:16px; text-align:center;"">  How responsible do you feel concerning <br> the outcome ? </p>""",,04/05/2020,1.59E+12,04/05/2020,1.59E+12,
5df8411cfeea895e82d45d5d,9990844,25,m,scaleresp,17,2,1,1,2,9,16,1,1057,2454.835,65,,537031,0.0-188.0,html-slider-response,188,"<p style=font-size:16px; text-align:center;"">  How responsible do you feel concerning <br> the outcome ? </p>""",,04/05/2020,1.59E+12,04/05/2020,1.59E+12,
5ad8c254c0332a0001ec703c,7529639,26,F,scaleresp,8,1,2,1,3,7,15,0,903,2323.735,99,,749542,0.0-249.0,html-slider-response,249,"<p style=font-size:16px; text-align:center;"">  How responsible do you feel concerning <br> the outcome ? </p>""",,04/05/2020,1.59E+12,04/05/2020,1.59E+12,
5e64a832757e6121f493724c,7348245,19,M,scaleresp,8,1,2,1,3,18,19,0,1096,2040,20,,909994,0.0-234.0,html-slider-response,234,"<p style=font-size:16px; text-align:center;"">  How responsible do you feel concerning <br> the outcome ? </p>""",,04/05/2020,1.59E+12,04/05/2020,1.59E+12,
5c2cdd5cded72200015eed0f,2995551,29,M,scaleresp,20,1,2,2,2,7,10,1,921,2494.9,77,,503823,0.0-173.0,html-slider-response,173,"<p style=font-size:16px; text-align:center;"">  How responsible do you feel concerning <br> the outcome ? </p>""",,04/05/2020,1.59E+12,04/05/2020,1.59E+12,
5c5ab546903c7700010a4518,8042707,27,F,scaleresp,17,2,1,1,3,15,18,0,959,1667.53,80,,743911,0.0-279.0,html-slider-response,279,"<p style=font-size:16px; text-align:center;"">  How responsible do you feel concerning <br> the outcome ? </p>""",,04/05/2020,1.59E+12,04/05/2020,1.59E+12,
5da4db9d6599b0001542a7b0,7942662,21,M,scaleresp,11,2,1,2,2,3,9,1,1127,2354,67,,389136,0.0-113.0,html-slider-response,113,"<p style=font-size:16px; text-align:center;"">  How responsible do you feel concerning <br> the outcome ? </p>""",,04/05/2020,1.59E+12,04/05/2020,1.59E+12,
5c73e8a67fafbd001147187b,9797764,38,M,scaleresp,7,2,2,1,2,12,20,0,1701,2093,56,,934947,0.0-163.0,html-slider-response,163,"<p style=font-size:16px; text-align:center;"">  How responsible do you feel concerning <br> the outcome ? </p>""",,04/05/2020,1.59E+12,04/05/2020,1.59E+12,
5dadad152e8c52001757fbe6,4382999,20,F,scaleresp,16,1,1,1,3,7,18,,,,,,944200,0.0-309.0,html-slider-response,309,"<p style=font-size:16px; text-align:center;"">  How responsible do you feel concerning <br> the outcome ? </p>""",,04/05/2020,1.59E+12,04/05/2020,1.59E+12,
